Time,ACCX,ACCY,ACCZ,GYRX,GYRY,GYRZ
0.000,0.00,-1.50,0.75,47,-47,-16
0.002,0.00,-1.50,0.75,31,-47,-31
0.004,0.00,-1.50,0.75,31,-47,-31
0.006,0.12,-1.38,0.75,16,-31,-31
0.008,0.12,-1.38,0.75,16,-31,-31
0.010,0.12,-1.25,0.75,0,-31,-47
0.012,0.25,-1.12,0.75,0,-16,-47
0.014,0.38,-1.12,0.75,-16,-16,-47
0.016,0.38,-1.00,0.75,-16,-16,-47
0.018,0.50,-1.00,0.62,-16,-16,-47
0.020,0.62,-0.88,0.62,-16,0,-47
0.022,0.75,-0.88,0.50,-31,0,-47
0.024,0.88,-0.75,0.50,-31,0,-47
0.026,1.00,-0.62,0.50,-31,0,-47
0.028,1.12,-0.62,0.38,-31,0,-47
0.030,1.25,-0.62,0.38,-31,0,-47
0.032,1.38,-0.62,0.38,-31,0,-47
0.034,1.50,-0.75,0.38,-31,0,-47
0.036,1.62,-0.75,0.38,-31,0,-31
0.038,1.50,-0.75,0.38,-31,-16,-31
18.856,0.75,-0.75,0.12,0,0,0
18.858,0.75,-0.75,0.12,0,0,0
18.860,1.00,-0.50,0.12,0,0,0
18.862,1.25,-0.88,-0.12,0,0,0
18.864,1.50,-1.50,-0.38,16,16,16
18.866,2.00,-1.88,-0.12,31,16,16
18.868,2.25,-1.50,0.12,16,16,16
18.870,2.25,-1.12,-0.62,0,16,31
18.872,1.75,-0.12,-1.38,-31,0,47
18.874,1.50,0.62,-1.38,-63,-31,63
18.876,1.00,0.75,-0.50,-47,-78,63
18.878,0.62,0.25,0.00,0,-94,47
18.880,0.75,-0.62,0.00,63,-109,31
18.882,1.25,-1.50,-0.25,47,-78,31
18.884,1.25,-1.88,-0.50,47,-47,31
18.886,0.50,-1.75,-1.25,31,-63,47
18.888,-0.25,-1.25,-1.25,0,-109,31
18.890,-1.00,-0.62,-0.25,-16,-141,31
18.892,-1.50,-0.62,0.88,0,-172,16
18.894,-1.88,-1.00,1.75,31,-172,0
18.896,-2.00,-1.50,2.12,31,-141,0
18.898,-2.00,-2.25,2.12,31,-109,-16
18.900,-1.38,-2.88,1.50,16,-63,-16
18.902,-0.38,-3.00,0.88,-16,-16,-16
18.904,0.50,-2.75,0.50,-63,31,-31
18.906,1.00,-2.25,0.25,-94,47,-31
18.908,1.12,-1.75,0.50,-125,0,-31
18.910,0.88,-1.50,0.88,-109,-16,-16
18.912,0.62,-1.12,1.00,-109,-31,-31
18.914,0.50,-0.62,0.75,-125,-16,-31
18.916,0.38,-0.12,0.25,-141,0,-31
18.918,0.50,0.38,-0.25,-156,16,-31
18.920,0.75,0.75,-0.62,-156,16,-47
18.922,0.75,0.88,-0.75,-125,16,-47
18.924,0.75,0.62,-0.75,-94,16,-31
18.926,0.88,0.12,-0.62,-63,0,-31
18.928,1.12,-0.38,-0.50,-47,16,-31
18.930,1.38,-0.75,-0.62,-47,16,-31
18.932,1.62,-1.00,-1.00,-47,16,-31
18.934,1.75,-1.12,-1.12,-47,16,-16
18.936,1.75,-1.12,-1.12,-47,16,-16
18.938,1.62,-1.00,-1.00,-47,0,0
18.940,1.38,-0.75,-0.88,-47,0,0
18.942,1.25,-0.50,-0.75,-47,-16,0
18.944,1.00,-0.12,-0.75,-47,-16,16
18.946,0.88,0.12,-0.75,-47,0,16
18.948,0.75,0.50,-0.88,-47,0,16
18.950,0.62,0.88,-0.88,-31,0,16
18.952,0.38,1.12,-0.88,0,16,16
18.954,0.25,1.12,-0.75,16,16,16
18.956,0.00,1.00,-0.62,47,16,16
18.958,-0.12,1.00,-0.62,63,31,16
18.960,-0.25,0.75,-0.50,78,31,16
18.962,-0.25,0.62,-0.50,109,47,16
18.964,-0.25,0.25,-0.38,125,63,16
18.966,-0.25,-0.25,-0.38,156,78,16
18.968,0.00,-0.62,-0.38,172,78,16
18.970,0.25,-1.12,-0.25,172,94,16
18.972,0.50,-1.50,-0.25,188,109,16
18.974,0.62,-1.75,-0.25,172,109,16
18.976,0.50,-1.62,-0.38,172,109,16
18.978,0.38,-1.38,-0.38,156,109,16
18.980,0.12,-1.12,-0.25,125,94,0
18.982,-0.25,-0.75,0.00,125,78,0
18.984,-0.38,-0.50,0.25,125,78,-16
18.986,-0.50,-0.38,0.50,125,78,-16
18.988,-0.62,-0.38,0.62,125,94,-31
18.990,-0.50,-0.38,0.62,125,109,-31
18.992,-0.50,-0.38,0.62,125,109,-31
18.994,-0.38,-0.38,0.75,125,125,-47
18.996,-0.25,-0.38,0.88,125,125,-47
18.998,0.00,-0.38,1.00,125,125,-47
19.000,0.12,-0.50,1.25,125,125,-47
19.002,0.38,-0.62,1.25,125,125,-47
19.004,0.75,-0.75,1.38,125,141,-47
19.006,1.12,-1.00,1.38,125,141,-63
19.008,1.50,-1.12,1.38,125,141,-47
19.010,1.75,-1.25,1.25,109,141,-47
19.012,2.00,-1.25,1.25,109,125,-47
19.014,2.12,-1.25,1.25,94,109,-47
19.016,2.12,-1.12,1.38,94,94,-47
19.018,2.00,-1.00,1.50,78,78,-47
19.020,1.88,-0.88,1.62,78,63,-47
19.022,1.88,-0.88,1.62,78,47,-47
19.024,2.00,-0.88,1.50,63,31,-47
19.026,1.88,-0.88,1.50,63,31,-31
19.028,1.88,-0.75,1.50,47,16,-31
19.030,1.62,-0.75,1.50,47,0,-31
19.032,1.62,-0.88,1.62,47,-16,-31
19.034,1.50,-0.88,1.62,47,-16,-31
19.036,1.62,-1.00,1.62,31,-31,-31
19.038,1.50,-1.00,1.50,16,-31,-16
19.040,1.50,-1.00,1.50,0,-47,-16
19.042,1.50,-1.00,1.50,0,-47,-16
19.044,1.38,-1.00,1.50,0,-63,-16
19.046,1.38,-1.12,1.50,-16,-63,-16
19.048,1.25,-1.12,1.50,-16,-78,-16
19.050,1.12,-1.12,1.38,-31,-78,-16
19.052,1.12,-1.00,1.38,-31,-78,-16
19.054,1.00,-0.88,1.25,-63,-94,-16
19.056,0.75,-0.75,1.25,-63,-94,-16
19.058,0.62,-0.62,1.12,-78,-94,0
19.060,0.50,-0.62,1.12,-78,-109,0
19.062,0.50,-0.62,1.00,-78,-109,0
19.064,0.50,-0.62,1.00,-94,-94,0
19.066,0.62,-0.62,0.88,-94,-94,0
19.068,0.75,-0.62,0.75,-94,-94,0
19.070,0.88,-0.75,0.62,-109,-94,16
19.072,1.00,-0.75,0.62,-109,-94,16
19.074,1.12,-0.75,0.50,-109,-94,16
19.076,1.12,-0.75,0.50,-125,-94,16
19.078,1.25,-0.75,0.38,-125,-94,16
19.080,1.12,-0.75,0.38,-125,-94,16
19.082,1.12,-0.62,0.38,-125,-109,16
19.084,1.12,-0.62,0.25,-141,-109,16
19.086,1.00,-0.50,0.25,-141,-109,31
19.088,0.88,-0.38,0.25,-141,-109,31
19.090,0.75,-0.25,0.12,-141,-109,31
19.092,0.62,-0.12,0.12,-141,-109,31
19.094,0.50,-0.12,0.00,-141,-109,31
19.096,0.50,0.00,0.00,-125,-94,31
19.098,0.50,0.00,-0.12,-125,-94,31
19.100,0.50,0.00,-0.25,-109,-78,31
19.102,0.50,0.00,-0.38,-109,-78,31
19.104,0.62,-0.12,-0.38,-94,-63,31
19.106,0.62,-0.25,-0.50,-94,-63,31
19.108,0.50,-0.25,-0.62,-94,-63,31
19.110,0.62,-0.38,-0.62,-78,-63,31
19.112,0.62,-0.38,-0.75,-78,-47,31
19.114,0.50,-0.50,-0.75,-63,-47,31
19.116,0.50,-0.50,-0.75,-63,-47,31
19.118,0.50,-0.50,-0.75,-63,-31,31
19.120,0.50,-0.50,-0.88,-63,-31,47
19.122,0.50,-0.50,-0.88,-47,-31,31
19.124,0.50,-0.50,-0.88,-47,-31,31
19.126,0.38,-0.38,-0.88,-47,-16,31
19.128,0.38,-0.25,-0.88,-31,-16,31
19.130,0.25,-0.12,-0.88,-31,-16,31
19.132,0.12,-0.12,-0.75,-31,-16,31
19.134,0.12,0.00,-0.75,-16,0,31
20.748,0.75,-0.75,0.12,0,0,0
20.750,0.75,-0.75,0.12,0,0,0
20.752,1.00,-0.88,0.00,0,0,0
20.754,1.12,-0.75,-0.12,16,16,16
20.756,1.62,-0.88,-0.25,16,16,16
20.758,2.25,-1.38,-0.50,16,31,16
20.760,2.12,-1.50,-1.00,16,31,16
20.762,2.25,-1.25,-1.62,16,16,31
20.764,2.25,-0.38,-1.75,-16,0,31
20.766,1.88,0.38,-1.38,-31,-31,31
20.768,1.00,0.75,-1.25,-16,-78,31
20.770,0.12,0.62,-1.00,31,-94,31
20.772,-0.12,0.38,-0.88,47,-109,31
20.774,-0.12,0.00,-0.62,63,-94,16
20.776,-0.25,-0.25,-0.12,78,-78,16
20.778,-0.62,-0.62,-0.25,78,-63,0
20.780,-0.75,-1.00,-0.38,63,-63,0
20.782,-0.75,-1.50,-0.25,63,-47,-16
20.784,-0.50,-2.00,0.00,78,-31,-16
20.786,-0.25,-2.38,0.12,63,-31,-16
20.788,0.00,-2.50,0.38,63,-16,-16
20.790,0.25,-2.38,0.50,47,-16,-16
20.792,0.38,-2.12,0.38,16,0,-16
20.794,0.50,-1.75,0.25,0,0,-16
20.796,0.62,-1.38,0.00,-47,16,-16
20.798,0.75,-1.00,0.00,-47,16,-16
20.800,0.88,-0.50,0.00,-47,16,-16
20.802,0.75,-0.25,0.00,-47,16,-31
20.804,0.62,-0.12,0.25,-47,0,-31
20.806,0.50,0.00,0.25,-31,0,-31
20.808,0.50,0.00,0.25,-31,0,-31
20.810,0.62,-0.25,0.12,-16,16,-31
20.812,0.88,-0.50,0.00,-16,16,-31
20.814,1.00,-0.75,0.00,0,16,-31
20.816,1.12,-1.00,0.12,0,16,-31
20.818,1.12,-1.00,0.12,0,16,-31
20.820,1.25,-1.12,0.25,0,16,-31
20.822,1.25,-1.00,0.12,-16,0,-31
20.824,1.25,-0.88,0.12,-16,0,-16
20.826,1.12,-0.75,0.12,-16,0,-16
20.828,1.12,-0.62,0.12,-16,0,-16
20.830,1.00,-0.50,0.12,-16,0,0
20.832,1.00,-0.38,0.12,-16,0,0
20.834,1.00,-0.25,0.12,-16,0,0
20.836,1.00,-0.25,0.00,-16,16,0
20.838,1.00,-0.25,0.00,-16,16,0
20.840,1.00,-0.25,0.00,0,16,0
20.842,1.00,-0.38,0.00,16,16,16
20.844,1.00,-0.38,0.00,16,16,16
20.846,0.88,-0.50,0.00,16,16,16
20.848,0.75,-0.50,0.00,16,16,16
20.850,0.62,-0.50,0.00,16,16,16
20.852,0.50,-0.38,0.00,31,16,31
20.854,0.38,-0.38,0.00,31,31,31
20.856,0.38,-0.25,0.12,31,31,31
20.858,0.25,-0.25,0.12,31,31,47
20.860,0.25,-0.25,0.25,47,31,47
20.862,0.25,-0.38,0.25,47,47,47
20.864,0.25,-0.38,0.25,47,47,47
20.866,0.38,-0.38,0.25,63,63,47
22.410,0.75,-0.75,0.12,0,0,0
22.412,0.88,-0.88,0.12,0,0,0
22.414,1.00,-0.62,0.00,0,0,0
22.416,1.25,-1.00,-0.38,0,0,16
22.418,1.75,-1.62,-0.25,16,16,16
22.420,2.50,-2.00,-0.12,31,31,16
22.422,2.12,-2.12,-0.88,16,16,16
22.424,2.00,-1.50,-2.00,-31,0,31
22.426,1.88,-0.25,-2.00,-63,-31,31
22.428,1.50,0.62,-1.25,-78,-63,31
22.430,0.25,0.62,-0.88,-47,-94,31
22.432,-0.25,0.12,-0.75,16,-109,16
22.434,-0.38,-0.50,-0.50,63,-109,16
22.436,-0.25,-0.75,-0.38,63,-78,16
22.438,-0.62,-0.75,-0.50,16,-63,-16
22.440,-1.12,-0.88,-0.62,0,-78,-16
22.442,-1.12,-1.38,-0.62,16,-78,-16
22.444,-0.88,-2.00,-0.38,31,-47,-16
22.446,-0.50,-2.50,-0.25,47,-16,-16
22.448,-0.38,-2.75,-0.25,31,0,-16
22.450,-0.25,-2.50,-0.50,16,16,-16
22.452,0.12,-1.62,-0.25,-63,16,-16
22.454,0.25,-1.00,0.25,-78,16,-31
22.456,0.25,-0.50,0.50,-63,16,-16
22.458,0.25,-0.12,0.38,-63,16,-16
22.460,0.75,0.12,0.38,-63,16,-16
22.462,1.38,0.25,0.38,-78,47,-16
22.464,1.62,0.00,0.38,-63,63,-31
22.466,1.75,-0.50,-0.12,-16,47,-16
22.468,1.75,-0.88,-0.38,-16,31,-16
22.470,1.75,-0.88,-0.38,-16,16,-16
22.472,1.62,-0.75,-0.25,-31,16,-31
22.474,1.25,-0.75,0.12,-31,-16,-16
22.476,0.75,-0.62,0.38,-16,-31,-16
22.478,0.50,-0.50,0.50,-16,-31,-16
22.480,0.50,-0.50,0.38,-31,-16,-16
22.482,0.62,-0.62,0.25,-31,0,0
22.484,0.88,-0.62,0.00,-16,16,0
22.486,1.00,-0.62,-0.12,-16,16,0
22.488,1.00,-0.62,-0.12,-16,16,0
22.490,1.00,-0.62,0.00,-16,16,0
22.492,1.00,-0.62,0.00,-16,0,16
22.494,1.00,-0.62,0.12,-16,0,16
22.496,1.00,-0.50,0.00,-16,16,16
22.498,1.00,-0.62,-0.12,-16,16,16
22.500,1.12,-0.62,-0.25,0,16,16
22.502,1.12,-0.75,-0.25,0,16,16
22.504,1.12,-0.88,-0.25,0,16,16
22.506,1.00,-0.75,-0.25,16,16,16
22.508,0.75,-0.50,-0.25,16,16,16
22.510,0.50,-0.38,-0.12,16,16,31
22.512,0.38,-0.25,-0.12,16,16,31
22.514,0.25,-0.12,-0.12,31,16,31
22.516,0.12,0.12,-0.12,31,31,31
22.518,0.00,0.25,-0.12,31,31,31
22.520,0.00,0.25,-0.12,47,31,31
22.522,0.00,0.25,-0.12,47,47,31
22.524,0.12,0.00,0.00,78,47,31
22.526,0.25,-0.25,0.00,94,63,31
22.528,0.38,-0.38,0.00,94,63,16
22.530,0.38,-0.38,-0.12,94,63,16
22.532,0.38,-0.50,-0.12,94,78,16
22.534,0.38,-0.62,0.00,109,63,16
22.536,0.38,-0.88,0.12,109,63,16
22.538,0.25,-1.00,0.38,125,63,0
22.540,0.25,-1.12,0.38,109,63,0
22.542,0.12,-1.12,0.38,109,63,0
22.544,0.12,-1.00,0.38,94,63,-16
22.546,0.00,-0.75,0.38,94,63,-16
22.548,-0.12,-0.75,0.50,94,63,-16
22.550,-0.12,-0.62,0.62,94,63,-16
22.552,0.00,-0.62,0.75,94,63,-16
22.554,0.12,-0.62,0.88,94,78,-16
22.556,0.25,-0.62,0.75,78,78,-31
22.558,0.38,-0.62,0.75,78,78,-31
22.560,0.50,-0.62,0.75,78,78,-31
22.562,0.62,-0.62,0.75,78,78,-31
22.564,0.62,-0.62,0.88,78,63,-31
22.566,0.75,-0.62,1.00,78,63,-31
22.568,0.75,-0.75,1.12,78,63,-31
23.878,0.62,-0.75,0.12,-16,-16,0
23.880,0.75,-0.88,0.12,-16,-16,0
23.882,0.75,-0.75,0.00,-16,-16,0
23.884,0.75,-0.62,-0.12,-16,-16,0
23.886,1.38,-1.12,-0.25,0,0,0
23.888,2.12,-1.88,-0.38,31,31,0
23.890,2.00,-2.38,-0.88,31,31,0
23.892,2.38,-2.50,-2.25,0,16,16
23.894,2.50,-1.75,-2.75,-31,0,16
23.896,1.88,-0.38,-2.50,-63,0,31
23.898,0.62,0.38,-2.12,-78,-47,16
23.900,-0.88,0.88,-1.62,-63,-109,0
23.902,-1.75,1.00,-0.75,-31,-156,0
23.904,-1.88,0.38,-0.12,47,-109,-16
23.906,-1.62,-0.50,0.00,63,-47,-16
23.908,-1.50,-1.12,-0.38,63,0,-31
23.910,-1.12,-1.50,-1.12,31,31,-31
23.912,-0.75,-1.88,-1.50,16,31,-47
23.914,-0.25,-1.88,-1.12,0,47,-47
23.916,-0.12,-2.00,-0.50,0,47,-47
23.918,0.12,-1.75,0.00,0,47,-31
23.920,0.50,-1.25,0.50,-31,47,-31
23.922,0.75,-0.88,0.88,-31,63,-31
23.924,1.38,-0.62,0.62,-31,78,-16
23.926,1.75,-0.50,0.12,-47,94,-16
23.928,2.25,-0.50,-0.38,-63,94,-16
23.930,2.50,-0.38,-0.62,-63,94,-16
23.932,2.50,-0.12,-0.62,-47,63,-31
23.934,2.12,-0.12,-0.25,-31,31,-16
23.936,1.75,0.00,0.12,-16,0,-16
23.938,1.25,0.12,0.38,-16,0,-16
23.940,1.00,0.12,0.38,0,0,-16
23.942,0.88,0.00,0.12,0,0,-16
23.944,1.00,-0.12,0.00,0,16,0
23.946,1.00,-0.38,-0.12,0,31,0
23.948,1.12,-0.50,0.00,16,16,16
23.950,1.12,-0.62,0.12,16,16,16
23.952,1.12,-0.75,0.25,16,16,16
23.954,1.25,-0.88,0.25,16,16,16
23.956,1.38,-0.88,0.25,16,16,31
23.958,1.38,-0.75,0.25,16,16,31
23.960,1.38,-0.75,0.25,16,16,31
23.962,1.38,-0.75,0.25,16,0,31
23.964,1.25,-0.75,0.25,16,0,31
23.966,1.12,-0.75,0.25,16,0,31
23.968,1.00,-0.75,0.38,16,0,31
23.970,0.88,-0.62,0.38,16,0,31
23.972,0.75,-0.62,0.25,16,0,31
23.974,0.62,-0.62,0.25,16,0,31
23.976,0.50,-0.62,0.25,31,0,31
23.978,0.38,-0.62,0.25,31,0,31
23.980,0.38,-0.62,0.25,31,0,31
23.982,0.25,-0.62,0.12,31,0,31
23.984,0.25,-0.62,0.12,47,16,31
23.986,0.12,-0.50,0.12,47,16,31
23.988,0.00,-0.50,0.12,47,16,31
23.990,0.00,-0.38,0.25,47,16,31
23.992,0.00,-0.38,0.25,47,16,31
23.994,0.00,-0.50,0.25,47,31,16
23.996,0.00,-0.50,0.25,63,31,16
23.998,0.00,-0.62,0.25,63,31,16
24.000,0.12,-0.88,0.25,63,31,16
24.002,0.25,-1.00,0.38,63,47,0
24.004,0.25,-1.12,0.38,78,47,0
24.006,0.25,-1.12,0.38,63,47,-16
24.008,0.12,-1.00,0.38,63,47,-16
24.010,0.00,-0.75,0.38,47,47,-16
24.012,-0.12,-0.62,0.50,47,31,-16
24.014,-0.12,-0.62,0.62,47,47,-16
24.016,0.00,-0.62,0.62,47,47,-16
24.018,0.25,-0.62,0.62,47,47,-31
24.020,0.38,-0.62,0.50,47,63,-31
24.022,0.50,-0.62,0.50,47,63,-31
24.024,0.62,-0.50,0.38,47,63,-31
24.026,0.75,-0.50,0.50,47,47,-31
24.028,0.75,-0.50,0.62,47,47,-31
24.030,0.75,-0.50,0.62,47,47,-31
24.032,0.88,-0.50,0.75,47,47,-31
24.034,0.88,-0.50,0.75,47,47,-31
24.036,0.88,-0.50,0.75,47,31,-31
24.038,0.00,-0.62,0.25,63,31,16
24.040,0.12,-0.88,0.25,63,31,16
24.042,0.25,-1.00,0.38,63,47,0
24.044,0.25,-1.12,0.38,78,47,0
24.046,0.25,-1.12,0.38,63,47,-16
24.048,0.12,-1.00,0.38,63,47,-16
24.050,0.00,-0.75,0.38,47,47,-16
24.052,-0.12,-0.62,0.50,47,31,-16
24.054,-0.12,-0.62,0.62,47,47,-16
24.056,0.00,-0.62,0.62,47,47,-16
24.058,0.25,-0.62,0.62,47,47,-31
24.060,0.38,-0.62,0.50,47,63,-31
24.062,0.50,-0.62,0.50,47,63,-31
24.064,0.62,-0.50,0.38,47,63,-31
24.066,0.75,-0.50,0.50,47,47,-31
24.068,0.75,-0.50,0.62,47,47,-31
24.070,0.75,-0.50,0.62,47,47,-31
24.072,0.88,-0.50,0.75,47,47,-31
24.074,0.88,-0.50,0.75,47,47,-31
24.076,0.88,-0.50,0.75,47,31,-31
32.474,0.75,-0.75,0.12,0,0,0
32.476,0.75,-0.75,0.12,0,0,0
32.478,0.88,-0.88,0.00,0,0,0
32.480,1.00,-0.88,0.00,0,0,0
32.482,1.62,-1.00,0.00,16,16,16
32.484,2.62,-1.62,-0.25,16,16,16
32.486,3.50,-2.75,-0.75,16,31,16
32.488,4.12,-3.38,-1.12,31,47,16
32.490,5.00,-4.38,-2.50,31,47,31
32.492,5.62,-3.75,-4.38,16,16,47
32.494,4.00,-1.62,-3.62,-63,-31,47
32.496,2.25,0.00,-3.00,-203,-203,16
32.498,0.00,1.50,-1.38,-188,-344,0
32.500,-2.75,2.75,0.12,-141,-391,-31
32.502,-4.75,3.62,1.25,-78,-359,-47
32.504,-5.62,3.00,1.62,-16,-313,-47
32.506,-4.50,1.25,1.00,0,-250,-16
32.508,-0.75,0.25,1.25,16,-172,16
32.510,-2.00,-1.00,1.12,63,0,31
32.512,-1.75,-2.38,0.38,16,188,94
32.514,-0.12,-3.38,-1.12,-16,63,63
32.516,1.38,-4.38,-2.00,-47,-31,31
32.518,1.88,-4.62,-0.38,-16,-31,-31
32.520,2.50,-4.12,0.88,-16,31,-78
32.522,2.88,-2.38,1.38,-47,31,-109
32.524,1.50,-0.88,0.62,-94,0,-109
32.526,0.50,0.00,-0.50,-203,-16,-47
32.528,0.12,0.62,-0.62,-188,0,-31
32.530,-0.25,0.88,-0.88,-109,31,-47
32.532,-0.50,1.88,0.00,-31,63,-63
32.534,-0.62,2.50,-0.12,16,63,-78
32.536,-0.38,2.75,-0.50,-16,47,-94
32.538,0.25,2.75,-1.25,-47,31,-78
32.540,0.75,2.12,-1.25,16,78,0
32.542,1.38,0.88,-1.25,63,109,31
32.544,1.75,0.00,-1.25,94,125,63
32.546,2.00,-0.50,-1.25,125,94,63
32.548,2.12,-0.88,-0.62,141,94,78
32.550,3.00,-1.38,-0.88,125,78,78
32.552,3.62,-1.75,-0.50,94,47,63
32.554,3.50,-1.62,-0.38,109,47,63
32.556,2.75,-1.00,-0.25,94,16,47
32.558,2.00,-1.00,-0.50,78,-16,47
32.560,1.38,-1.12,-0.38,94,-31,47
32.562,0.88,-1.62,0.00,109,-31,47
32.564,0.62,-1.88,0.25,141,-31,63
32.566,0.62,-2.00,0.50,141,-16,78
32.568,0.38,-1.88,0.50,141,0,78
32.570,0.00,-1.75,0.00,94,31,78
32.572,-0.38,-1.38,-0.50,78,31,78
32.574,-0.88,-0.38,-0.75,63,31,78
32.576,-1.38,0.75,-0.88,31,31,63
32.578,-1.38,1.00,-0.50,16,0,47
32.580,-1.50,1.12,0.62,47,16,31
32.582,-2.38,1.88,1.75,125,63,16
32.584,-3.00,1.88,1.88,172,78,-16
32.586,-3.75,1.12,0.25,94,63,-16
32.588,-3.50,0.12,-0.12,94,109,-16
32.590,-1.88,-0.38,0.88,156,156,-31
32.592,-0.62,-1.00,1.12,188,203,-63
32.594,0.00,-1.00,1.62,156,219,-109
32.596,0.38,-1.12,0.88,125,188,-141
32.598,0.75,-1.88,1.00,141,203,-172
32.600,2.12,-3.38,1.38,141,219,-172
32.602,3.12,-4.12,2.00,125,172,-141
32.604,3.62,-4.00,1.62,141,141,-109
32.606,2.25,-2.62,1.50,109,125,-78
32.608,1.75,-1.88,0.75,31,141,-47
32.610,1.50,-1.12,0.38,-31,125,-31
32.612,1.38,-0.62,0.38,-31,109,-31
32.614,1.12,-0.12,0.88,16,109,-31
32.616,0.75,0.25,1.12,31,94,-31
32.618,0.62,0.25,1.25,31,78,-31
32.620,0.50,0.38,1.12,31,78,-47
32.622,0.25,0.62,1.25,47,94,-78
32.624,0.38,0.75,1.12,63,94,-94
32.626,0.50,0.88,1.00,47,78,-125
32.628,1.12,0.50,1.12,47,47,-141
32.630,1.62,0.25,1.50,63,47,-125
32.632,2.00,-0.25,1.75,78,47,-94
32.634,2.12,-0.75,1.62,63,31,-47
32.636,2.12,-1.12,1.62,63,16,-16
32.638,2.00,-1.38,1.62,63,0,0
32.640,1.88,-1.50,1.75,47,0,16
32.642,1.75,-1.50,1.88,47,-16,16
32.644,1.38,-1.38,1.88,31,-31,16
32.646,1.12,-1.25,2.00,31,-47,16
32.648,0.88,-1.25,1.88,16,-47,16
32.650,0.62,-1.12,1.75,16,-63,16
32.652,0.50,-1.00,1.62,0,-63,16
32.654,0.38,-1.00,1.62,0,-63,16
32.656,0.38,-1.00,1.50,-16,-63,16
32.658,0.25,-1.00,1.50,-16,-63,16
32.660,0.25,-1.00,1.25,-31,-63,16
32.662,0.38,-1.00,1.25,-31,-63,0
32.664,0.50,-1.00,1.12,-31,-63,0
32.666,0.62,-1.00,1.12,-47,-63,0
32.668,0.62,-1.00,1.12,-47,-63,-16
32.670,0.75,-1.12,1.12,-63,-63,-16
32.672,0.75,-1.12,1.12,-63,-78,-16
32.674,0.62,-1.00,1.00,-78,-78,-16
32.676,0.62,-0.88,1.00,-78,-78,-16
32.678,0.62,-0.75,1.00,-94,-78,-16
32.680,0.62,-0.50,0.88,-94,-94,-16
32.682,0.62,-0.38,0.88,-94,-94,-16
32.684,0.62,-0.38,0.88,-94,-94,-16
32.686,0.62,-0.25,0.75,-94,-94,-16
32.688,0.62,-0.25,0.62,-94,-94,-16
32.690,0.62,-0.25,0.62,-94,-94,-16
32.692,0.75,-0.25,0.50,-94,-78,-16
32.694,0.75,-0.25,0.50,-94,-78,0
32.696,0.75,-0.38,0.38,-94,-78,0
32.698,0.75,-0.38,0.38,-78,-78,0
32.700,0.75,-0.50,0.25,-78,-78,0
32.702,0.88,-0.50,0.25,-78,-78,0
32.704,0.75,-0.50,0.12,-78,-78,0
32.706,0.75,-0.50,0.12,-78,-78,16
32.708,0.62,-0.50,0.12,-78,-78,16
32.710,0.50,-0.38,0.12,-78,-94,16
32.712,0.50,-0.38,0.12,-78,-94,16
32.714,0.38,-0.38,0.12,-63,-78,16
32.716,0.25,-0.38,0.00,-63,-78,16
32.718,0.25,-0.25,0.00,-63,-78,16
32.720,0.12,-0.25,0.00,-63,-63,16
32.722,0.12,-0.25,0.00,-63,-63,16
32.724,0.12,-0.25,-0.12,-47,-63,16
32.726,0.12,-0.38,-0.12,-47,-47,16
32.728,0.12,-0.50,-0.12,-47,-47,16
32.730,0.25,-0.50,-0.12,-31,-31,16
32.732,0.25,-0.50,-0.25,-31,-31,16
32.734,0.25,-0.62,-0.25,-31,-16,16
32.736,0.25,-0.62,-0.25,-31,-16,16
32.738,0.38,-0.62,-0.25,-31,-16,16
32.740,0.50,-0.75,-0.12,-16,0,16
32.742,0.50,-0.75,-0.12,-16,0,16
32.744,0.50,-0.75,-0.12,-16,0,0
32.746,0.50,-0.75,-0.12,-16,16,0
32.748,0.50,-0.62,-0.12,-16,16,0
32.750,0.50,-0.62,-0.12,-16,16,0
32.752,0.50,-0.50,0.00,-16,16,0
33.960,0.62,-0.75,0.00,0,0,0
33.962,0.62,-0.75,0.00,0,0,0
33.964,0.75,-0.75,0.00,0,0,0
33.966,1.12,-0.88,-0.12,0,16,16
33.968,1.75,-0.88,-0.12,16,16,16
33.970,2.75,-1.12,-0.25,16,31,16
33.972,3.62,-1.62,-0.75,16,31,16
33.974,4.12,-2.50,-1.75,16,47,31
33.976,4.88,-3.00,-2.62,31,47,31
33.978,5.38,-2.88,-3.12,0,-31,47
33.980,4.12,-1.12,-2.75,-63,-94,47
33.982,2.00,0.25,-2.50,-125,-188,47
33.984,0.12,1.25,-1.50,-141,-313,47
33.986,-0.50,0.75,-0.50,-94,-375,31
33.988,-0.75,1.00,1.75,0,-359,16
33.990,-2.62,1.88,3.12,109,-250,-16
33.992,-3.88,2.00,3.50,78,-172,0
33.994,-5.62,0.75,0.75,-47,-188,0
33.996,-5.88,-0.12,0.38,-31,-141,-16
33.998,-4.75,-2.25,0.00,31,-94,-78
34.000,-3.12,-3.50,0.50,47,-31,-156
34.002,-2.00,-4.25,1.00,47,16,-234
34.004,-0.62,-5.88,0.75,16,31,-313
34.006,0.62,-6.38,0.62,-47,31,-438
34.008,2.25,-4.50,1.12,-31,31,-453
34.010,3.25,-2.25,1.50,-94,63,-438
34.012,2.12,-0.75,0.12,-219,63,-328
34.014,0.88,0.12,-0.75,-281,78,-234
34.016,0.62,0.62,-1.12,-234,47,-188
34.018,0.00,1.12,-1.62,-141,31,-188
34.020,-0.38,2.25,-0.25,-16,109,-203
34.022,-0.38,2.50,-0.25,-31,109,-188
34.024,0.38,2.62,-1.00,-94,63,-156
34.026,0.88,2.62,-1.25,-94,47,-109
34.028,1.38,2.12,-1.50,-47,109,-47
34.030,2.12,1.12,-1.38,0,141,0
34.032,2.62,0.38,-1.62,31,141,31
34.034,3.00,0.00,-1.50,63,125,47
34.036,3.50,-0.38,-1.00,78,94,78
34.038,3.75,-0.38,-0.75,78,78,78
34.040,3.88,-0.62,-0.50,78,63,78
34.042,3.88,-1.00,-0.75,94,63,78
34.044,3.62,-1.25,-0.88,94,47,78
34.046,3.00,-1.12,-0.75,94,31,78
34.048,2.38,-0.38,-0.75,94,16,94
34.050,1.50,0.00,-0.75,78,-16,78
34.052,0.75,0.25,-0.75,78,-31,78
34.054,-0.12,0.50,-0.38,109,-31,78
34.056,-0.75,0.75,-0.38,109,-31,78
34.058,-1.50,1.00,0.00,109,-16,63
34.060,-1.75,1.00,0.38,125,0,63
34.062,-2.50,1.12,1.12,141,31,47
34.064,-3.12,1.00,1.00,188,63,-16
34.066,-4.12,0.88,0.88,172,47,-16
34.068,-4.00,0.25,0.88,188,94,-31
34.070,-3.75,-0.62,1.25,188,141,-63
34.072,-2.50,-1.38,1.12,188,203,-125
34.074,-1.38,-1.75,1.38,156,203,-203
34.076,-0.75,-2.38,1.25,156,203,-266
34.078,0.00,-3.38,0.75,141,203,-297
34.080,0.75,-4.50,1.25,125,250,-328
34.082,2.75,-4.75,1.50,125,219,-328
34.084,3.88,-3.62,2.00,125,172,-313
34.086,4.00,-2.50,2.00,63,172,-281
34.088,2.50,-1.38,1.38,-16,172,-203
34.090,1.12,-1.12,0.75,-78,156,-109
34.092,0.75,-0.75,0.62,-94,125,-47
34.094,0.62,-0.50,0.75,-31,109,-31
34.096,0.50,-0.25,1.25,-16,125,-31
34.098,0.50,0.25,1.50,0,141,-47
34.100,0.50,0.38,1.38,-16,141,-47
34.102,0.50,0.38,1.00,-31,141,-63
34.104,0.50,0.50,1.00,-16,125,-78
34.106,0.62,0.75,1.00,16,125,-125
34.108,0.88,0.75,0.88,31,109,-234
34.110,1.62,0.62,1.00,31,94,-281
34.112,2.12,0.62,1.25,31,78,-313
34.114,2.62,0.75,1.38,47,78,-313
34.116,3.12,1.00,1.50,47,63,-297
34.118,3.38,1.00,1.38,47,31,-250
34.120,3.50,1.00,1.50,78,16,-188
34.122,2.62,0.12,1.38,78,-16,-31
34.124,2.00,-0.38,1.50,78,-31,16
34.126,1.62,-0.62,1.75,94,-47,31
34.128,1.38,-0.88,2.00,78,-63,31
34.130,1.12,-0.88,2.12,63,-47,31
34.132,0.88,-0.88,2.12,47,-47,47
34.134,0.88,-0.88,1.88,31,-47,47
34.136,0.75,-0.88,1.75,31,-47,47
34.138,0.75,-1.00,1.62,16,-63,63
34.140,0.88,-1.12,1.62,16,-63,63
34.142,0.88,-1.12,1.62,16,-63,78
34.144,0.88,-1.12,1.62,0,-78,94
34.146,0.88,-1.12,1.50,0,-78,109
34.148,0.88,-1.12,1.38,-16,-94,125
34.150,0.88,-1.12,1.38,-16,-94,141
34.152,0.88,-1.25,1.25,-31,-94,172
34.154,0.62,-1.38,1.12,-31,-94,188
34.156,0.38,-1.38,1.12,-47,-94,188
34.158,0.12,-1.38,1.12,-63,-94,172
34.160,-0.12,-1.38,1.00,-78,-109,156
34.162,-0.50,-1.25,0.88,-94,-109,125
34.164,-0.50,-0.62,1.12,-94,-94,78
34.166,0.38,-0.12,0.88,-109,-109,-16
34.168,0.62,0.12,0.75,-125,-94,-31
34.170,0.88,0.00,0.50,-109,-78,-31
34.172,1.00,0.00,0.25,-109,-78,-31
34.174,1.12,-0.12,0.25,-94,-94,-31
34.176,1.12,-0.12,0.38,-94,-94,-31
34.178,1.12,-0.12,0.38,-78,-109,-16
34.180,1.12,-0.12,0.38,-78,-109,-16
34.182,1.25,-0.12,0.25,-78,-109,-16
34.184,1.25,0.00,0.12,-78,-109,0
34.186,1.25,0.00,0.00,-78,-109,0
34.188,1.12,-0.12,0.00,-78,-109,0
34.190,1.00,-0.12,0.00,-63,-109,0
34.192,0.88,-0.12,0.00,-63,-109,16
34.194,0.75,-0.12,0.00,-63,-125,16
34.196,0.62,-0.12,0.00,-47,-109,16
34.198,0.50,-0.12,0.00,-47,-109,16
34.200,0.38,-0.12,-0.12,-47,-109,31
34.202,0.25,-0.12,-0.12,-47,-94,31
34.204,0.12,-0.25,-0.12,-47,-94,31
34.206,0.12,-0.38,-0.12,-31,-94,31
34.208,0.12,-0.50,-0.12,-31,-78,31
34.210,0.25,-0.75,0.00,-16,-63,16
34.212,0.25,-0.75,-0.12,-16,-47,16
34.214,0.38,-0.88,-0.12,-16,-47,16
34.216,0.50,-1.00,-0.12,-16,-31,16
34.218,0.50,-1.12,-0.12,-16,-31,16
34.220,0.50,-1.00,-0.12,-16,-31,16
34.222,0.62,-1.00,-0.12,-31,-16,16
34.224,0.50,-0.75,-0.12,-31,-16,16
34.226,0.50,-0.62,-0.12,-31,0,0
34.228,0.38,-0.50,-0.25,-31,0,0
34.230,0.25,-0.38,-0.25,-31,0,0
34.232,0.25,-0.25,-0.25,-31,0,0
34.234,0.25,-0.25,-0.12,-31,16,0
34.236,0.38,-0.38,-0.25,-16,16,0
34.238,0.62,-0.38,-0.25,-16,31,-16
34.390,0.75,-0.50,-0.50,-16,0,16
34.392,0.75,-0.62,-0.50,-16,16,16
34.394,0.88,-0.62,-0.62,-16,16,16
34.396,1.12,-0.50,-0.62,-16,16,16
34.398,1.88,-0.50,-0.62,0,31,31
34.400,2.75,-0.88,-0.75,0,47,31
34.402,3.38,-1.25,-1.38,16,47,31
34.404,3.75,-1.75,-2.00,16,47,31
34.406,4.50,-1.88,-3.00,16,31,31
34.408,4.75,-1.38,-3.38,0,-16,47
34.410,4.50,-0.75,-3.25,-47,-63,47
34.412,3.50,-0.25,-3.00,-31,-156,47
34.414,1.38,-0.38,-2.50,0,-219,47
34.416,-0.25,0.00,-1.88,16,-281,47
34.418,-1.25,0.12,-1.50,0,-313,47
34.420,-1.12,0.00,-0.25,-16,-313,31
34.422,-2.50,0.38,0.75,16,-250,47
34.424,-4.00,0.12,1.00,63,-172,78
34.426,-5.62,-0.25,1.00,47,-156,109
34.428,-6.88,-1.50,-0.38,0,-109,156
34.430,-6.50,-2.62,0.50,31,-78,141
34.432,-3.75,-3.62,0.88,78,-16,63
34.434,-1.50,-4.00,0.38,63,63,-47
34.436,-0.38,-3.50,0.62,-31,141,-156
34.438,1.25,-3.62,-0.75,-94,156,-281
34.440,2.12,-2.62,-0.88,-141,125,-375
34.442,3.12,-1.62,-0.75,-109,78,-484
34.444,3.50,-0.88,-0.75,-125,63,-469
34.446,1.75,0.50,-0.75,-141,47,-375
34.448,0.62,1.25,-0.75,-141,47,-344
34.450,0.12,1.50,-1.75,-141,16,-328
34.452,-0.75,2.75,-1.50,-109,31,-344
34.454,-1.12,3.50,-1.88,-63,94,-344
34.456,-1.00,3.88,-2.12,-78,94,-234
34.458,-0.62,4.25,-2.50,-63,94,-125
34.460,-0.12,2.75,-2.75,-16,109,-16
34.462,0.75,1.38,-2.38,47,156,31
34.464,1.12,0.75,-1.75,94,172,16
34.466,1.38,0.38,-1.25,125,156,16
34.468,1.75,0.38,-1.00,94,125,31
34.470,1.88,0.38,-0.75,78,109,47
34.472,2.25,0.12,-0.62,94,109,63
34.474,2.75,-0.12,-0.62,109,125,78
34.476,3.75,-0.50,-0.25,125,125,109
34.478,5.25,-1.38,-0.38,109,109,125
34.480,6.12,-2.12,0.12,109,78,156
34.482,6.12,-2.50,0.25,125,63,172
34.484,4.38,-2.38,0.38,125,47,156
34.486,2.50,-1.00,0.12,94,-16,78
34.488,1.25,-0.25,-0.50,47,-78,47
34.490,0.38,-0.12,-0.50,16,-78,31
34.492,-0.12,-0.12,0.50,63,-31,31
34.494,-0.12,-0.25,1.62,156,63,31
34.496,-0.25,-0.50,2.12,203,109,47
34.498,-0.38,-0.62,1.62,188,125,78
34.500,-0.50,-0.62,0.38,109,94,156
34.502,-1.62,-1.00,-0.50,63,109,188
34.504,-2.25,-1.12,-0.38,47,125,188
34.506,-2.75,-1.00,0.50,94,94,188
34.508,-3.12,-1.00,1.00,125,78,172
34.510,-3.00,-1.12,1.38,141,94,141
34.512,-1.38,-1.38,1.50,125,141,78
34.514,-0.50,-1.50,1.12,94,250,-78
34.516,0.25,-1.50,0.62,63,250,-109
34.518,0.62,-1.50,0.25,47,234,-125
34.520,0.88,-1.50,0.50,47,219,-141
34.522,1.00,-1.50,1.12,63,219,-156
34.524,1.25,-1.25,1.62,78,203,-156
34.526,1.38,-1.00,1.75,78,188,-141
34.528,1.38,-0.75,1.50,31,188,-94
34.530,1.50,-0.62,1.00,0,203,-63
34.532,1.62,-0.62,0.88,0,203,-63
34.534,1.88,-0.62,0.62,0,188,-63
34.536,2.25,-0.50,0.50,16,172,-63
34.538,2.38,-0.50,0.62,16,156,-78
34.540,2.38,-0.25,0.75,16,141,-78
34.542,2.12,0.00,0.75,16,125,-78
34.544,1.88,0.25,0.62,16,94,-109
34.546,1.50,0.50,0.50,16,63,-125
34.548,1.25,0.75,0.62,16,63,-141
34.550,1.12,0.88,0.88,31,47,-156
34.552,1.00,1.00,1.12,31,47,-172
34.554,1.12,1.00,1.25,47,31,-172
34.556,1.38,1.00,1.25,63,31,-156
34.558,1.38,0.88,1.25,63,31,-94
34.560,1.38,0.62,1.38,63,31,-47
34.562,1.00,-0.12,1.38,78,16,0
34.564,0.88,-0.38,1.62,94,0,31
34.566,1.00,-0.62,1.88,94,0,31
34.568,1.00,-0.88,2.12,94,0,31
34.570,1.12,-1.00,2.00,78,0,31
34.572,1.38,-1.12,1.88,47,0,31
34.574,1.50,-1.25,1.62,47,0,31
34.576,1.62,-1.25,1.50,31,-16,47
34.578,1.62,-1.38,1.38,31,-31,47
34.580,1.50,-1.38,1.38,31,-31,63
34.582,1.12,-1.25,1.50,16,-47,63
34.584,0.88,-1.12,1.62,16,-63,78
34.586,0.62,-1.12,1.62,0,-63,125
34.588,0.38,-1.12,1.50,-16,-63,141
34.590,0.12,-1.12,1.38,-31,-47,141
34.592,-0.12,-1.12,1.25,-31,-47,141
34.594,-0.25,-1.00,1.12,-47,-47,125
34.596,-0.50,-0.88,1.12,-47,-47,94
34.598,-0.50,-0.50,1.25,-47,-47,63
34.600,0.25,-0.12,1.12,-47,-47,31
34.602,0.62,0.12,1.12,-63,-31,-31
34.604,0.88,0.12,1.00,-63,-31,-31
34.606,1.12,0.00,0.88,-47,-31,-31
34.608,1.12,0.00,0.88,-47,-47,-31
34.610,1.25,0.00,0.88,-47,-47,-31
34.612,1.25,0.00,0.88,-47,-47,-31
34.614,1.12,0.00,0.88,-31,-63,-31
34.616,1.00,0.00,0.88,-31,-63,-31
34.618,0.88,0.00,0.88,-31,-63,-16
34.620,0.88,0.00,0.75,-31,-63,-16
34.622,0.88,0.00,0.75,-16,-63,-16
34.624,0.88,-0.12,0.62,-16,-63,-16
34.626,1.00,-0.12,0.50,-16,-47,-16
34.628,1.00,-0.25,0.38,-16,-47,-16
34.630,1.00,-0.25,0.38,-16,-63,0
34.632,0.88,-0.25,0.38,-16,-63,0
34.634,0.75,-0.25,0.38,-16,-63,0
34.636,0.62,-0.25,0.38,-16,-63,0
34.638,0.50,-0.25,0.38,-16,-63,0
34.640,0.38,-0.25,0.38,-16,-63,0
34.642,0.38,-0.25,0.25,-16,-63,16
34.644,0.38,-0.25,0.25,-16,-47,16
34.646,0.38,-0.12,0.25,-16,-47,16
34.648,0.25,-0.12,0.25,-16,-47,0
34.650,0.25,-0.12,0.38,-16,-47,0
34.652,0.12,-0.12,0.38,-16,-47,0
34.654,0.12,-0.25,0.50,-16,-31,0
34.656,0.12,-0.25,0.62,-16,-31,0
34.658,0.25,-0.38,0.62,-16,-31,0
34.660,0.38,-0.50,0.50,-16,-16,0
34.662,0.50,-0.50,0.50,-16,0,0
34.664,0.62,-0.62,0.50,-16,0,0
34.666,0.75,-0.62,0.50,-16,0,0
34.668,0.88,-0.62,0.50,-16,0,0
35.552,0.88,-0.38,-0.38,-16,16,16
35.554,1.00,-0.38,-0.38,-16,16,16
35.556,1.12,-0.38,-0.38,-16,16,16
35.558,1.75,-0.50,-0.38,0,16,16
35.560,2.38,-0.50,-0.38,0,31,31
35.562,2.88,-0.50,-0.62,0,31,31
35.564,3.25,-0.75,-1.12,0,31,31
35.566,3.50,-0.75,-1.62,0,16,47
35.568,4.12,-0.75,-2.38,0,-16,47
35.570,4.75,-1.00,-3.62,-31,-47,63
35.572,5.12,-1.12,-5.88,-31,-63,63
35.574,2.25,-1.75,-7.75,-31,-78,63
35.576,0.62,-0.25,-5.88,-47,-172,78
35.578,-1.00,0.38,-2.00,0,-344,31
35.580,-1.25,0.00,0.62,94,-438,-31
35.582,-3.00,0.75,3.62,203,-391,-47
35.584,-5.38,-0.38,3.62,250,-250,-16
35.586,-8.25,-1.38,4.50,141,-188,47
35.588,-10.50,-2.88,2.12,31,63,125
35.590,-7.50,-5.25,-0.12,-16,109,94
35.592,-3.38,-4.12,0.38,-47,94,16
35.594,-1.25,-3.38,1.25,-109,219,-94
35.596,0.50,-2.88,1.00,-188,250,-219
35.598,1.88,-2.50,0.62,-203,172,-375
35.600,4.75,-2.62,0.50,-203,78,-516
35.602,7.88,-1.25,2.25,-94,-31,-672
35.604,8.12,0.00,1.62,-63,-31,-641
35.606,5.62,1.38,0.25,-156,63,-656
35.608,4.00,3.75,-1.75,-250,31,-656
35.610,2.62,4.50,-3.12,-266,-94,-578
35.612,0.75,3.88,-3.75,-281,-125,-453
35.614,-0.38,3.75,-2.38,-219,-94,-375
35.616,-1.38,3.50,-0.75,-16,-47,-359
35.618,-2.12,2.88,0.38,188,0,-359
35.620,-2.50,1.50,-0.50,94,0,-266
35.622,-2.38,0.50,-1.62,16,0,-156
35.624,-0.62,0.38,-2.12,0,31,-47
35.626,0.75,0.75,-1.88,31,94,47
35.628,1.75,0.75,-1.38,47,141,78
35.630,2.75,0.38,-1.38,47,141,94
35.632,3.12,0.12,-1.12,78,31,94
35.634,3.75,-0.12,-1.12,94,31,109
35.636,4.25,-0.38,-0.25,109,47,141
35.638,5.12,-1.00,-0.62,78,16,156
35.640,5.25,-1.50,-0.38,78,0,188
35.642,4.38,-2.00,-0.38,78,-16,188
35.644,1.88,-1.50,-0.12,78,-31,172
35.646,0.38,-0.88,-0.38,63,-94,109
35.648,-0.25,-0.62,-0.62,31,-109,78
35.650,-0.50,-0.50,0.12,47,-47,63
35.652,-0.88,-0.50,0.75,78,63,63
35.654,-1.12,-0.62,1.12,109,125,63
35.656,-1.25,-1.00,0.12,94,125,78
35.658,-1.38,-2.00,-1.25,63,94,94
35.660,-1.50,-2.38,-1.12,16,47,78
35.662,-1.75,-2.12,-0.38,47,78,63
35.664,-1.88,-2.00,0.50,63,109,47
35.666,-2.00,-1.75,0.88,63,125,31
35.668,-1.50,-1.00,1.00,47,141,16
35.670,-0.75,-0.62,0.62,31,172,-16
35.672,-0.62,-0.25,0.50,0,203,-31
35.674,-0.38,0.00,0.25,-16,234,-47
35.676,-0.12,-0.12,0.25,16,234,-47
35.678,0.12,-0.25,0.75,31,234,-47
35.680,0.38,-0.38,1.12,63,234,-47
35.682,0.75,-0.25,1.38,63,250,-47
35.684,1.00,-0.12,1.25,47,234,-47
35.686,1.12,-0.25,0.62,31,250,-63
35.688,1.38,-0.38,0.38,31,250,-78
35.690,2.25,-0.50,0.25,31,266,-94
35.692,2.75,-0.62,0.25,47,234,-109
35.694,3.62,-0.50,0.38,63,203,-109
35.696,4.12,-0.25,0.50,63,188,-125
35.698,3.88,-0.12,0.38,63,172,-125
35.700,2.25,0.50,0.25,47,156,-125
35.702,1.38,1.00,0.00,31,125,-125
35.704,0.50,0.88,0.12,31,47,-109
35.706,0.00,0.88,0.88,63,78,-109
35.708,-0.38,1.00,1.50,109,109,-109
35.710,-0.62,1.25,1.88,125,141,-109
35.712,-0.62,1.12,1.75,125,125,-94
35.714,-0.50,0.75,1.25,94,109,-78
35.716,0.00,0.25,1.25,78,109,-31
35.718,0.62,-0.25,1.62,109,125,16
35.720,1.38,-0.62,1.62,109,109,16
35.722,1.62,-0.75,2.00,109,94,16
35.724,2.00,-0.88,2.25,109,78,31
35.726,2.38,-1.12,2.12,94,78,47
35.728,2.62,-1.38,2.12,78,63,63
35.730,2.75,-1.50,2.00,78,63,78
35.732,2.62,-1.62,1.75,63,47,94
35.734,2.12,-1.62,1.75,47,16,94
35.736,1.50,-1.50,1.75,31,-16,94
35.738,1.00,-1.25,1.88,16,-31,94
35.740,0.62,-1.12,2.00,0,-47,78
35.742,0.25,-1.12,2.12,0,-47,63
35.744,-0.12,-1.00,2.12,0,-31,47
35.746,-0.25,-0.88,2.12,-16,-31,31
35.748,0.12,-0.75,1.88,-31,-31,0
35.750,1.00,-0.50,1.75,-47,-31,-16
35.752,1.25,-0.50,1.62,-47,-16,-31
35.754,1.62,-0.50,1.38,-63,-16,-16
35.756,1.88,-0.50,1.25,-63,-31,-31
35.758,2.00,-0.50,1.25,-63,-63,-31
35.760,2.12,-0.38,1.38,-63,-78,-31
35.762,2.12,-0.25,1.50,-63,-94,-31
35.764,1.88,-0.12,1.38,-63,-94,-16
35.766,1.75,-0.12,1.12,-63,-109,-16
35.768,1.50,0.12,1.00,-63,-125,-16
35.770,1.25,0.25,0.88,-78,-125,-16
35.772,1.00,0.25,0.88,-63,-141,0
35.774,0.75,0.38,0.88,-63,-141,0
35.776,0.62,0.38,0.75,-47,-141,0
35.778,0.50,0.38,0.75,-47,-141,0
35.780,0.38,0.38,0.62,-47,-141,16
35.782,0.50,0.38,0.50,-47,-125,16
35.784,0.62,0.25,0.38,-31,-125,16
35.786,0.75,0.00,0.38,-31,-125,16
35.788,0.75,-0.12,0.25,-31,-125,16
35.790,0.88,-0.12,0.25,-31,-125,16
35.792,0.88,-0.25,0.25,-16,-125,16
35.794,0.88,-0.38,0.12,-16,-125,31
35.796,0.75,-0.38,0.12,-16,-125,31
35.798,0.62,-0.50,0.25,-16,-125,31
35.800,0.50,-0.50,0.12,-16,-125,31
35.802,0.38,-0.38,0.12,-31,-125,31
35.804,0.12,-0.38,0.12,-31,-125,31
35.806,0.00,-0.38,0.12,-31,-125,16
35.808,-0.12,-0.38,0.12,-31,-109,16
35.810,-0.12,-0.50,0.12,-31,-109,16
35.812,0.00,-0.50,0.00,-31,-94,16
35.814,0.25,-0.50,0.00,-31,-78,16
35.816,0.38,-0.62,-0.12,-31,-78,16
35.818,0.50,-0.62,-0.12,-31,-63,16
35.820,0.50,-0.62,-0.12,-31,-63,0
35.822,0.50,-0.62,-0.25,-31,-47,0
35.824,0.50,-0.50,-0.25,-31,-47,0
35.826,0.38,-0.38,-0.38,-31,-47,0
35.828,0.25,-0.25,-0.38,-31,-47,0
35.830,0.12,-0.12,-0.25,-31,-31,0
36.048,0.75,-0.38,-0.38,16,78,16
36.050,1.00,-0.38,-0.38,31,78,16
36.052,1.12,-0.25,-0.38,31,78,16
36.054,1.50,-0.12,-0.38,31,78,16
36.056,2.25,-0.25,-0.38,31,94,16
36.058,3.12,-0.25,-0.50,47,109,16
36.060,3.88,-0.62,-1.00,31,109,16
36.062,4.38,-1.12,-1.88,31,94,16
36.064,5.00,-1.25,-2.50,31,78,31
36.066,5.62,-1.00,-2.75,31,31,31
36.068,5.00,-0.38,-2.38,0,-78,31
36.070,2.38,-0.38,-2.38,16,-141,31
36.072,0.62,-0.38,-2.12,47,-219,31
36.074,-1.00,-0.50,-1.88,63,-266,31
36.076,-1.62,-0.88,-1.25,47,-281,16
36.078,-1.50,-0.75,0.00,31,-266,0
36.080,-2.75,-0.62,1.75,47,-188,31
36.082,-4.25,-1.12,2.62,78,-94,94
36.084,-5.25,-2.12,2.25,47,-78,109
36.086,-6.38,-3.50,0.88,0,-47,125
36.088,-4.12,-4.62,0.88,-16,-31,125
36.090,-1.25,-3.88,0.25,-16,31,63
36.092,0.25,-2.88,1.12,-63,141,-47
36.094,1.50,-2.38,0.12,-141,172,-156
36.096,2.75,-1.88,-0.88,-219,47,-406
36.098,5.25,-1.25,-1.38,-203,31,-484
36.100,6.00,0.50,0.00,-141,-16,-516
36.102,3.62,1.50,-0.12,-109,-31,-484
36.104,1.25,2.12,-0.50,-141,16,-484
36.106,0.88,2.75,-2.00,-156,-63,-500
36.108,0.12,3.75,-1.38,-156,-125,-516
36.110,-1.38,4.50,-1.62,-31,16,-484
36.112,-2.25,5.25,-1.38,-16,63,-438
36.114,-2.50,5.00,-2.00,-16,31,-344
36.116,-1.12,2.12,-3.12,-16,16,-203
36.118,-0.50,1.25,-2.62,31,31,-16
36.120,0.50,0.62,-1.62,125,125,63
36.122,1.00,0.00,-1.12,141,156,78
36.124,1.62,-0.25,-1.25,125,125,63
36.126,1.62,0.00,-1.12,63,47,47
36.128,1.62,0.25,-0.88,63,47,47
36.130,2.12,0.25,-0.50,63,63,63
36.132,2.38,0.00,-0.50,78,78,63
36.134,2.50,-0.12,-0.25,94,78,78
36.136,3.75,-0.38,-0.12,94,63,78
36.138,4.88,-0.88,0.38,78,47,109
36.140,6.25,-1.62,0.25,63,16,188
36.142,6.75,-2.00,0.50,78,31,234
36.144,4.62,-1.75,0.88,78,31,266
36.146,1.88,-1.50,0.25,63,0,297
36.148,0.62,-1.38,-0.38,16,-78,297
36.150,-0.12,-0.62,0.38,0,-125,250
36.152,-0.25,-0.25,1.75,31,-47,219
36.154,-2.00,-0.38,2.38,109,203,172
36.156,-2.62,-0.75,2.12,94,219,156
36.158,-2.12,-1.88,-0.25,16,94,125
36.160,-3.00,-2.88,-1.38,-78,-16,109
36.162,-3.25,-1.88,-0.75,-31,31,78
36.164,-1.62,-0.62,0.88,47,125,47
36.166,-0.50,-0.75,1.25,47,188,0
36.168,0.50,-0.75,0.75,16,250,-63
36.170,1.25,-1.00,-0.38,0,219,-78
36.172,1.50,-1.12,-1.00,-31,219,-94
36.174,1.62,-0.62,-0.50,-31,219,-94
36.176,1.25,-0.12,0.25,0,188,-94
36.178,1.12,0.00,0.75,16,156,-78
36.180,0.88,0.00,1.00,16,141,-78
36.182,0.62,0.00,1.00,16,156,-47
36.184,0.75,0.12,0.62,0,188,-31
36.186,0.88,0.25,0.38,0,188,-31
36.188,1.12,0.25,0.25,0,188,-31
36.190,1.25,0.12,0.25,0,188,-31
36.192,1.25,0.00,0.50,31,172,-31
36.194,1.25,0.00,0.62,47,172,-31
36.196,1.50,0.12,0.75,47,172,-47
36.198,1.75,0.38,0.50,47,125,-78
36.200,1.75,0.50,0.50,47,125,-78
36.202,1.62,0.62,0.38,47,125,-63
36.204,1.12,0.75,0.38,47,125,-63
36.206,0.75,0.75,0.62,63,109,-63
36.208,0.50,0.75,0.75,63,78,-47
36.210,0.25,0.50,1.00,78,78,-31
36.212,0.25,0.12,1.00,78,94,0
36.214,0.50,0.00,1.12,78,94,0
36.216,0.62,-0.12,1.38,78,94,0
36.218,0.75,-0.25,1.50,94,78,0
36.220,0.88,-0.50,1.62,94,78,0
36.222,1.12,-0.75,1.62,94,78,0
36.224,1.25,-0.88,1.75,94,78,0
36.226,1.50,-0.88,1.75,63,63,0
36.228,1.62,-0.88,1.75,63,47,0
36.230,1.75,-1.00,1.88,47,47,-16
36.232,1.88,-1.00,1.75,47,31,-16
36.234,2.00,-1.12,1.75,31,16,-16
36.236,2.00,-1.25,1.75,31,16,-16
36.238,1.75,-1.25,1.75,16,0,-16
36.240,1.50,-1.00,1.75,16,0,-16
36.242,1.25,-1.00,1.75,0,-31,-16
36.244,1.12,-0.88,1.75,-16,-31,-16
36.246,1.12,-0.62,1.62,-16,-31,-16
36.248,1.12,-0.50,1.50,-31,-31,-16
36.250,1.12,-0.25,1.25,-31,-31,-16
36.252,1.25,-0.12,1.12,-47,-47,-16
36.254,1.38,-0.12,1.12,-47,-47,-16
36.256,1.50,-0.12,1.12,-31,-47,-16
36.258,1.50,-0.12,1.12,-31,-63,-16
36.260,1.50,0.00,1.12,-31,-63,-16
36.262,1.50,0.00,1.00,-31,-78,-16
36.264,1.38,0.00,1.00,-31,-78,-16
36.266,1.12,0.12,0.88,-31,-78,-16
36.268,0.88,0.12,0.88,-31,-94,-16
36.270,0.50,0.25,0.88,-31,-94,0
36.272,0.25,0.25,0.88,-31,-94,0
36.274,0.00,0.38,0.88,-31,-94,0
36.276,-0.12,0.38,0.88,-16,-94,0
36.278,-0.25,0.38,0.88,-16,-78,0
36.280,-0.12,0.38,0.88,-16,-63,0
36.282,0.25,0.12,0.75,-16,-63,16
36.284,0.62,0.00,0.62,0,-31,16
36.286,1.00,-0.12,0.50,0,-31,16
36.288,1.25,-0.12,0.38,0,-31,16
36.290,1.25,-0.25,0.38,0,-47,16
36.292,1.38,-0.38,0.50,0,-47,16
36.294,1.25,-0.50,0.62,0,-47,16
36.296,1.12,-0.50,0.62,0,-63,16
36.298,0.88,-0.50,0.50,0,-63,16
36.300,0.62,-0.38,0.38,-16,-63,16
36.302,0.38,-0.38,0.38,-16,-63,0
36.304,0.25,-0.38,0.25,-16,-63,0
36.306,0.00,-0.25,0.25,-16,-63,0
36.308,-0.12,-0.25,0.38,-16,-63,0
36.310,-0.25,-0.12,0.38,-16,-63,0
36.312,-0.25,-0.12,0.25,-16,-47,0
36.314,-0.12,-0.12,0.25,-16,-31,0
36.316,0.00,-0.12,0.25,-16,-16,0
36.318,0.25,-0.12,0.25,-16,-16,0
36.320,0.50,-0.25,0.25,-16,0,-16
36.322,0.62,-0.12,0.25,-16,0,-16
36.324,0.75,-0.12,0.25,-16,0,-16
36.326,0.88,-0.12,0.25,-16,0,-16
37.248,0.75,-0.12,-0.50,-16,-16,16
37.250,0.75,-0.25,-0.50,-16,-16,16
37.252,0.88,-0.25,-0.50,-16,0,16
37.254,0.88,-0.25,-0.50,-16,0,16
37.256,1.62,0.12,-0.62,-16,0,16
37.258,2.12,1.00,-1.12,-16,16,31
37.260,2.25,1.38,-2.12,-31,47,31
37.262,2.50,2.00,-3.12,-47,31,31
37.264,2.38,2.88,-4.38,-31,16,31
37.266,2.00,3.12,-5.25,-16,0,16
37.268,1.88,2.88,-5.38,-16,-31,0
37.270,1.50,3.12,-5.25,63,-78,-31
37.272,0.25,2.75,-4.75,203,-109,-16
37.274,-1.12,2.00,-4.38,219,-125,0
37.276,-2.12,1.00,-3.50,266,-141,0
37.278,-2.12,-0.38,-2.38,297,-125,0
37.280,-1.38,-1.25,-0.75,328,-63,0
37.282,-0.88,-1.88,0.75,359,16,31
37.284,-0.38,-2.38,1.75,359,109,63
37.286,0.00,-2.88,1.88,234,141,109
37.288,0.25,-3.50,1.62,172,109,125
37.290,0.50,-4.12,0.88,125,109,125
37.292,0.88,-4.38,0.50,109,125,94
37.294,1.62,-3.75,1.12,94,141,63
37.296,1.88,-3.00,1.62,94,156,0
37.298,1.62,-2.62,1.75,63,141,-47
37.300,0.75,-2.75,1.25,16,94,-63
37.302,0.12,-2.75,0.88,0,78,-63
37.304,-0.38,-2.50,0.75,-16,78,-78
37.306,-0.75,-2.25,0.88,-47,94,-94
37.308,-0.75,-2.12,1.00,-47,109,-94
37.310,-0.75,-2.00,1.00,-63,125,-94
37.312,-0.25,-2.00,0.75,-78,141,-94
37.314,0.38,-1.62,0.38,-94,156,-94
37.316,1.00,-1.25,0.00,-156,172,-78
37.318,1.38,-0.75,-0.25,-172,172,-78
37.320,1.75,-0.25,-0.38,-188,156,-63
37.322,2.00,0.25,-0.25,-203,141,-63
37.324,2.00,0.50,-0.12,-203,125,-63
37.326,2.25,0.75,0.12,-188,94,-63
37.328,2.38,0.75,0.00,-156,78,-78
37.330,2.62,0.88,0.00,-141,63,-125
37.332,2.75,1.00,0.12,-141,47,-156
37.334,2.88,1.25,0.12,-125,31,-188
37.336,2.75,1.38,0.50,-109,31,-219
37.338,2.75,1.62,0.62,-94,16,-234
37.340,2.50,1.75,0.62,-94,16,-250
37.342,2.50,1.88,0.38,-94,0,-234
37.344,2.38,2.25,0.38,-94,-31,-188
37.346,2.00,2.38,0.50,-63,-31,-141
37.348,1.50,2.38,0.62,-47,-47,-78
37.350,1.00,2.25,0.62,-31,-47,-16
37.352,1.00,2.00,0.38,-16,-31,31
37.354,1.12,1.38,0.25,-16,-16,63
37.356,1.38,1.00,0.38,16,0,78
37.358,1.38,0.62,0.50,31,0,78
37.360,1.25,0.25,0.38,31,-16,78
37.362,1.25,-0.25,0.25,31,-16,78
37.364,1.12,-0.62,0.38,47,-16,78
37.366,1.12,-1.00,0.50,47,-16,94
37.368,1.12,-1.38,0.62,47,-16,94
37.370,1.00,-1.50,0.75,31,-16,94
37.372,0.75,-1.38,0.88,16,-16,109
37.374,0.50,-1.38,0.62,-16,-16,141
37.376,0.50,-1.25,0.50,-31,-16,125
37.378,0.62,-1.25,0.50,-31,-16,125
37.380,0.62,-1.38,0.50,-31,0,109
37.382,0.62,-1.25,0.62,-31,0,94
37.384,0.50,-1.38,0.75,-31,0,94
37.386,0.38,-1.25,0.75,-47,0,78
37.388,0.12,-1.25,0.75,-63,0,78
37.390,0.00,-1.25,0.75,-63,16,94
37.392,-0.12,-1.12,0.62,-78,31,94
37.394,-0.25,-1.12,0.50,-78,31,94
37.396,-0.12,-1.00,0.50,-78,47,78
37.398,0.00,-0.75,0.50,-78,47,63
37.400,0.38,-0.25,0.50,-78,63,47
37.402,0.62,0.00,0.25,-94,78,16
37.404,0.75,0.25,0.00,-94,78,16
37.406,0.88,0.25,-0.12,-78,78,16
37.408,1.00,0.38,-0.12,-63,78,16
37.410,1.00,0.38,-0.12,-47,78,16
37.412,1.00,0.38,-0.12,-47,63,16
37.414,1.00,0.38,-0.12,-31,63,16
37.416,1.12,0.38,-0.12,-16,63,16
37.418,1.12,0.38,-0.25,0,63,16
37.420,1.00,0.38,-0.25,0,47,16
37.422,0.88,0.38,-0.12,16,47,16
37.424,0.75,0.38,0.00,16,47,16
37.426,0.50,0.38,0.12,31,47,16
37.428,0.50,0.25,0.12,47,31,16
37.430,0.38,0.12,0.25,47,31,16
37.432,0.38,0.00,0.38,63,47,0
37.434,0.38,-0.12,0.50,78,47,0
37.436,0.38,-0.25,0.50,78,47,0
37.438,0.38,-0.38,0.50,78,47,0
37.440,0.38,-0.50,0.62,78,47,-16
37.442,0.50,-0.75,0.75,94,47,-16
37.444,0.50,-0.88,0.88,94,47,-16
37.446,0.50,-1.00,1.00,94,47,-31
37.684,1.00,0.25,-0.38,0,-63,-16
37.686,1.00,0.25,-0.38,0,-63,0
37.688,1.00,0.12,-0.25,0,-63,0
37.690,1.50,0.38,-0.25,16,-47,0
37.692,2.12,1.00,-0.62,0,-31,0
37.694,2.38,1.50,-1.88,-16,-16,16
37.696,2.50,2.25,-3.12,-31,0,16
37.698,2.50,3.12,-4.88,-31,-16,16
37.700,2.12,4.00,-6.25,-31,-31,16
37.702,2.12,4.00,-7.25,-31,-47,-16
37.704,1.62,4.25,-7.62,0,-94,-63
37.706,0.00,3.50,-6.38,156,-172,-47
37.708,-1.00,2.00,-4.00,219,-203,-31
37.710,-1.50,0.50,-1.88,313,-203,-31
37.712,-1.75,-0.50,-0.50,391,-141,-16
37.714,-2.00,-1.00,0.50,359,-31,31
37.716,-2.38,-1.62,0.75,281,94,78
37.718,-2.00,-2.38,-0.62,172,156,109
37.720,-0.75,-2.50,-1.50,94,141,109
37.722,0.75,-1.88,-1.25,78,172,63
37.724,1.25,-1.38,-0.62,63,234,47
37.726,1.50,-1.38,0.12,63,234,31
37.728,2.38,-1.88,0.25,78,172,16
37.730,2.62,-2.25,1.00,94,125,0
37.732,2.38,-2.75,1.50,109,141,0
37.734,1.50,-2.75,1.75,94,172,16
37.736,0.62,-2.62,1.50,16,141,63
37.738,-0.12,-2.50,0.88,-47,125,63
37.740,-0.75,-2.38,0.50,-78,141,63
37.742,-1.00,-2.38,0.12,-78,156,47
37.744,-1.12,-2.25,0.00,-78,172,47
37.746,-0.50,-1.75,0.00,-94,188,31
37.748,0.12,-1.25,0.00,-94,172,0
37.750,0.50,-0.88,-0.12,-125,188,-16
37.752,1.12,-0.62,-0.12,-125,188,-16
37.754,1.62,-0.25,0.00,-141,172,-16
37.756,2.00,-0.12,-0.25,-141,156,-16
37.758,2.38,0.12,-0.25,-141,141,-16
37.760,2.50,0.25,-0.38,-141,109,-16
37.762,2.62,0.25,-0.12,-125,94,-31
37.764,2.62,0.25,0.12,-109,47,-31
37.766,2.50,0.50,0.50,-94,31,-31
37.768,2.38,0.62,0.75,-78,16,-16
37.770,2.25,0.88,0.75,-78,16,-16
37.772,2.12,1.00,0.62,-78,16,-31
37.774,2.25,1.12,0.50,-63,0,-63
37.776,2.38,1.25,0.38,-63,0,-94
37.778,2.12,1.25,0.25,-47,-16,-141
37.780,1.88,1.38,0.50,-16,-47,-172
37.782,1.38,1.38,0.88,0,-63,-172
37.784,1.00,1.38,1.25,16,-63,-156
37.786,0.88,1.25,1.38,31,-63,-125
37.788,0.88,1.00,1.12,47,-47,-78
37.790,1.00,0.12,0.62,47,-31,-16
37.792,1.38,-0.12,0.50,47,-16,31
37.794,1.38,-0.38,0.62,63,-16,31
37.796,1.38,-0.50,0.62,63,-31,31
37.798,1.25,-0.75,0.62,47,-31,31
37.800,1.12,-0.88,0.62,47,-47,16
37.802,1.12,-1.12,0.75,47,-47,16
37.804,1.12,-1.38,0.75,47,-47,31
37.806,1.00,-1.50,0.75,47,-47,31
37.808,0.88,-1.62,0.75,16,-47,47
37.810,0.62,-1.50,0.62,0,-47,63
37.812,0.50,-1.50,0.62,-16,-47,63
37.814,0.38,-1.50,0.50,-16,-47,63
37.816,0.50,-1.50,0.50,-31,-31,63
37.818,0.50,-1.50,0.62,-31,-31,47
37.820,0.38,-1.38,0.75,-31,-31,47
37.822,0.38,-1.38,0.75,-47,-31,31
37.824,0.50,-1.38,0.75,-63,-16,31
37.826,0.75,-1.25,0.62,-63,-16,16
37.828,1.12,-1.00,0.62,-78,0,16
37.830,1.38,-0.62,0.50,-78,0,0
37.832,1.38,-0.25,0.25,-94,16,0
37.834,1.25,0.12,0.00,-94,0,0
37.836,1.00,0.50,0.00,-94,0,0
37.838,0.62,0.75,-0.12,-78,-16,0
37.840,0.25,0.88,0.00,-78,-16,0
37.842,-0.12,1.00,0.00,-63,-16,0
37.844,-0.25,1.00,0.00,-47,0,-16
37.846,-0.38,1.00,0.00,-31,16,-16
37.848,-0.12,0.75,0.00,-16,31,0
37.850,0.25,0.50,0.00,-16,47,0
37.852,0.75,0.38,-0.12,16,63,0
37.854,1.12,0.38,-0.25,16,78,0
37.856,1.38,0.38,-0.25,16,78,16
37.858,1.50,0.25,-0.38,16,63,16
37.860,1.62,0.25,-0.38,31,63,16
37.862,1.50,0.12,-0.25,31,47,16
37.864,1.25,-0.12,-0.12,47,47,16
37.866,1.00,-0.25,0.00,63,31,16
37.868,0.75,-0.38,0.12,63,31,16
37.870,0.50,-0.50,0.25,63,31,16
37.872,0.25,-0.62,0.38,63,31,16
37.874,0.00,-0.62,0.38,63,31,16
37.876,-0.12,-0.62,0.50,63,31,16
37.878,-0.25,-0.62,0.62,47,31,16
37.880,-0.38,-0.62,0.75,47,31,0
37.882,-0.25,-0.62,0.75,47,47,0
38.786,1.00,-0.12,-0.25,0,0,0
38.788,1.00,-0.12,-0.25,0,0,0
38.790,1.00,-0.12,-0.25,0,0,0
38.792,1.12,-0.12,-0.25,0,0,0
38.794,2.00,0.62,-0.38,0,0,0
38.796,2.25,1.75,-1.00,-16,31,16
38.798,2.62,2.25,-2.38,-31,47,31
38.800,3.00,3.12,-3.75,-47,47,31
38.802,3.25,3.75,-5.75,-31,31,31
38.804,3.62,4.00,-6.75,-16,16,16
38.806,3.25,4.12,-6.88,16,0,-16
38.808,2.12,3.88,-5.50,125,-63,-47
38.810,0.38,2.62,-3.50,328,-250,-78
38.812,-1.12,0.88,-0.88,406,-313,-78
38.814,-1.50,0.00,1.00,453,-281,-63
38.816,-2.50,-0.38,2.25,484,-141,-47
38.818,-3.62,-1.38,3.38,453,-31,-16
38.820,-3.75,-2.25,2.88,359,47,-16
38.822,-4.00,-4.62,0.38,250,63,-31
38.824,-1.75,-6.00,-0.75,141,78,-141
38.826,0.75,-5.88,-0.62,188,109,-141
38.828,2.00,-4.88,0.38,172,172,-156
38.830,2.62,-4.12,1.00,94,188,-188
38.832,3.00,-3.50,0.88,31,141,-234
38.834,3.38,-2.75,0.88,16,78,-297
38.836,3.00,-2.38,1.38,31,63,-313
38.838,1.88,-2.25,1.38,0,78,-266
38.840,0.25,-2.50,1.12,-63,78,-94
38.842,-0.50,-2.50,0.50,-78,47,-78
38.844,-1.00,-2.25,0.38,-94,47,-78
38.846,-1.38,-1.75,0.50,-141,78,-78
38.848,-1.50,-1.25,0.50,-156,125,-78
38.850,-0.50,-0.62,0.50,-172,141,-78
38.852,0.50,-0.38,0.38,-172,141,-94
38.854,1.38,-0.25,0.12,-203,172,-109
38.856,1.75,-0.12,-0.12,-203,156,-94
38.858,2.38,0.12,-0.25,-203,125,-94
38.860,2.62,0.25,-0.38,-203,94,-109
38.862,3.00,0.62,-0.12,-203,78,-125
38.864,3.38,0.75,0.00,-188,63,-156
38.866,3.62,1.12,0.12,-172,63,-188
38.868,3.50,1.62,0.38,-125,47,-266
38.870,2.88,2.00,0.38,-141,31,-297
38.872,2.50,2.38,0.38,-156,0,-344
38.874,2.38,2.88,-0.50,-156,-31,-375
38.876,2.00,4.00,0.00,-141,-47,-406
38.878,1.62,4.75,0.00,-109,-47,-391
38.880,1.12,5.12,0.25,-94,-47,-344
38.882,0.25,4.88,0.50,-16,-16,-188
38.884,-0.38,3.88,0.38,16,0,-94
38.886,0.38,2.00,0.12,47,16,0
38.888,1.00,1.25,0.50,78,31,63
38.890,1.50,0.50,1.12,94,63,109
38.892,1.62,-0.12,1.25,94,78,109
38.894,1.75,-0.75,1.00,78,47,109
38.896,1.62,-1.00,0.62,16,0,125
38.898,1.12,-1.12,0.62,16,16,141
38.900,0.75,-1.00,0.75,0,16,141
38.902,0.50,-1.00,0.88,0,16,141
38.904,0.25,-1.00,1.12,0,16,141
38.906,0.00,-1.00,1.25,0,31,141
38.908,0.00,-1.12,1.38,-16,31,125
38.910,0.12,-1.12,1.25,-31,47,125
38.912,0.25,-1.12,0.88,-63,63,125
38.914,0.50,-1.12,0.88,-63,63,125
38.916,0.75,-1.12,0.88,-78,63,125
38.918,1.00,-1.00,1.00,-78,63,141
38.920,1.12,-1.00,0.88,-78,63,141
38.922,1.25,-1.00,0.88,-78,63,156
38.924,1.38,-1.00,0.88,-94,47,172
38.926,1.38,-1.00,0.75,-94,47,203
38.928,1.25,-0.88,0.62,-109,47,219
38.930,1.12,-0.88,0.50,-109,47,219
38.932,0.88,-1.00,0.25,-109,31,203
38.934,0.50,-1.00,0.25,-109,31,172
38.936,0.12,-0.75,0.25,-109,16,125
38.938,0.50,0.25,0.38,-94,16,63
38.940,0.38,0.62,0.25,-109,16,0
38.942,0.25,0.88,0.12,-109,16,0
38.944,0.12,1.12,-0.12,-78,16,0
38.946,0.25,1.12,-0.25,-63,16,-16
38.948,0.50,1.12,-0.12,-47,31,-31
38.950,0.62,1.12,0.00,-31,31,-31
38.952,0.75,1.12,0.12,-16,31,-31
38.954,0.88,0.88,0.25,16,31,-16
38.956,0.88,0.75,0.25,31,31,-16
38.958,1.00,0.62,0.25,47,16,-16
38.960,1.00,0.50,0.38,47,16,-16
38.962,1.00,0.38,0.38,63,16,0
38.964,1.00,0.25,0.38,63,16,0
38.966,0.88,0.12,0.50,78,16,0
38.968,0.88,0.00,0.62,78,16,0
38.970,0.88,-0.12,0.62,94,0,-16
38.972,0.75,-0.25,0.75,94,0,-16
38.974,0.75,-0.38,0.75,94,0,-16
38.976,0.88,-0.62,0.88,94,0,-16
38.978,0.88,-0.75,0.88,94,0,-16
38.980,0.88,-1.00,1.00,94,0,-16
38.982,1.00,-1.12,1.00,94,0,-16
38.984,1.00,-1.25,1.12,94,0,-31
39.228,0.88,-0.12,-0.38,0,0,31
39.230,0.88,-0.12,-0.38,0,0,31
39.232,0.75,-0.12,-0.38,-16,0,31
39.234,1.12,0.00,-0.50,-16,16,31
39.236,2.00,0.62,-0.62,-16,16,31
39.238,2.12,1.62,-1.38,-31,31,47
39.240,2.25,2.50,-2.88,-63,47,47
39.242,2.75,3.50,-4.88,-78,47,47
39.244,2.50,4.12,-6.62,-78,31,47
39.246,2.25,4.12,-7.62,-47,0,0
39.248,1.62,3.50,-7.25,31,-63,-31
39.250,0.00,1.88,-4.75,156,-125,-31
39.252,-1.00,0.50,-1.75,281,-188,-31
39.254,-1.12,-0.50,0.88,359,-219,-31
39.256,-2.00,-0.62,2.12,375,-141,-16
39.258,-3.00,-1.50,2.88,328,31,16
39.260,-3.38,-2.62,1.00,63,172,78
39.262,-2.38,-4.50,-3.50,-94,156,78
39.264,0.62,-1.38,-2.62,-78,141,78
39.266,1.25,-0.38,-2.62,-47,219,78
39.268,1.62,0.00,-1.62,-78,297,63
39.270,2.00,-0.12,-1.12,-31,250,31
39.272,2.50,-0.50,-0.62,16,172,0
39.274,3.12,-0.75,0.12,63,109,-78
39.276,3.00,-0.88,1.00,63,156,-78
39.278,1.25,-1.38,1.50,63,156,-47
39.280,0.38,-1.88,1.25,31,141,16
39.282,0.00,-2.12,0.75,0,109,16
39.284,-0.38,-2.25,0.12,-47,125,31
39.286,-0.50,-2.25,-0.12,-78,156,31
39.288,-0.25,-1.75,-0.25,-94,172,31
39.290,0.25,-1.25,0.00,-78,156,16
39.292,0.50,-1.00,0.25,-94,156,16
39.294,1.00,-0.88,0.38,-94,156,16
39.296,1.25,-0.50,0.25,-94,156,16
39.298,1.62,-0.12,0.12,-109,141,16
39.300,2.00,0.25,-0.25,-125,125,0
39.302,2.12,0.38,-0.38,-125,109,0
39.304,2.25,0.62,-0.12,-94,78,-16
39.306,2.38,0.62,0.12,-78,47,-16
39.308,2.38,0.75,0.38,-63,31,-31
39.310,2.12,0.88,0.62,-47,16,-31
39.312,1.88,1.00,0.75,-47,0,-31
39.314,1.75,1.00,1.00,-31,0,-31
39.316,1.75,1.00,1.00,-31,-16,-47
39.318,2.00,0.88,0.88,-16,0,-47
39.320,2.38,0.62,0.75,0,0,-63
39.322,2.50,0.38,0.88,0,-16,-47
39.324,2.50,0.12,0.88,16,-16,-47
39.326,2.00,-0.12,0.88,16,-31,-31
39.328,1.75,-0.25,0.88,16,-47,-16
39.330,1.50,-0.25,1.00,16,-47,0
39.332,1.38,0.00,1.00,16,-47,16
39.334,1.25,0.12,0.88,16,-47,16
39.336,1.25,0.25,0.50,0,-47,16
39.338,1.12,0.12,0.25,0,-47,16
39.340,1.00,0.00,0.25,16,-47,16
39.342,1.00,-0.25,0.38,16,-47,16
39.344,0.88,-0.50,0.50,31,-47,16
39.346,0.88,-0.62,0.50,31,-47,16
39.348,0.75,-0.88,0.50,31,-47,16
39.350,0.62,-1.00,0.62,31,-47,16
39.352,0.62,-1.12,0.62,16,-47,16
39.354,0.50,-1.12,0.62,16,-31,31
39.356,0.50,-1.00,0.62,0,-31,31
39.358,0.62,-0.88,0.62,-16,-31,31
39.360,0.75,-0.75,0.50,-16,-16,31
39.362,0.88,-0.50,0.38,-31,-16,31
39.364,0.88,-0.38,0.38,-31,0,16
39.366,0.88,-0.25,0.25,-31,0,16
39.368,0.88,-0.25,0.25,-31,0,16
39.370,0.88,-0.12,0.25,-31,0,16
39.372,0.88,0.00,0.25,-31,0,16
39.374,0.88,0.00,0.12,-31,0,0
39.376,1.00,0.00,0.00,-31,0,0
39.378,1.00,0.00,-0.12,-16,0,0
39.380,1.12,-0.12,-0.12,-16,16,0
39.382,1.00,-0.25,-0.12,-16,0,0
39.384,1.00,-0.25,-0.12,-16,0,0
39.386,0.88,-0.25,-0.12,-16,0,0
39.388,0.75,-0.25,-0.12,0,0,0
39.390,0.50,-0.12,-0.12,-16,16,0
39.392,0.25,-0.12,-0.12,-16,16,0
39.394,-0.12,0.00,-0.12,0,16,0
39.396,-0.25,0.00,0.00,0,16,0
39.398,-0.38,0.00,0.12,0,16,0
39.400,-0.50,0.00,0.25,0,31,0
39.402,-0.38,0.00,0.25,16,47,0
39.404,0.00,-0.12,0.25,16,63,0
39.406,0.38,-0.12,0.25,16,78,0
39.408,0.75,-0.12,0.25,16,94,0
39.410,1.00,-0.25,0.38,16,94,0
39.412,1.25,-0.25,0.25,16,94,-16
39.414,1.38,-0.25,0.25,16,94,-16
39.416,1.38,-0.25,0.25,16,94,-16
39.418,1.38,-0.38,0.38,16,78,-16
39.420,1.12,-0.38,0.38,16,78,-16
39.422,1.00,-0.38,0.50,16,63,-16
39.424,0.75,-0.38,0.50,16,63,-16
39.426,0.62,-0.38,0.50,16,63,-16
40.306,1.00,-0.12,0.00,0,-16,0
40.308,1.00,-0.25,0.00,0,-16,0
40.310,1.00,-0.25,0.00,0,-16,0
40.312,1.62,0.12,0.00,0,-16,0
40.314,2.25,1.12,-0.50,0,0,0
40.316,2.25,2.00,-1.62,-16,16,16
40.318,2.38,2.88,-3.12,-31,31,16
40.320,2.62,4.00,-5.12,-47,16,16
40.322,2.62,4.75,-7.00,-31,0,-16
40.324,2.75,5.25,-8.62,-16,-31,-78
40.326,2.25,5.75,-8.88,47,-78,-141
40.328,1.12,5.38,-7.62,172,-141,-203
40.330,0.25,4.50,-5.38,313,-188,-266
40.332,-1.12,2.62,-3.50,438,-234,-297
40.334,-2.25,0.00,-1.50,547,-219,-188
40.336,-3.12,-1.12,-0.75,547,-94,-141
40.338,-4.12,-2.00,1.38,500,47,-94
40.340,-5.00,-3.00,2.62,422,156,-78
40.342,-5.00,-4.50,2.12,313,219,-78
40.344,-3.00,-6.50,0.75,234,219,-156
40.346,0.38,-7.12,0.00,172,203,-250
40.348,2.25,-6.00,0.88,109,250,-266
40.350,3.12,-4.75,2.00,63,297,-266
40.352,3.88,-4.12,2.38,16,281,-297
40.354,4.62,-3.38,2.62,-16,234,-344
40.356,4.62,-2.75,2.62,-16,203,-406
40.358,5.12,-1.75,2.12,-47,234,-422
40.360,4.12,-1.00,3.12,-109,234,-359
40.362,2.38,-1.75,1.75,-141,203,-250
40.364,1.25,-2.00,1.38,-156,141,-47
40.366,1.00,-2.12,0.75,-141,125,-31
40.368,1.50,-1.88,0.12,-172,141,-47
40.370,1.75,-1.50,-0.12,-219,156,-78
40.372,1.75,-0.88,-0.12,-250,156,-94
40.374,1.62,-0.25,0.25,-250,125,-94
40.376,1.38,0.12,0.38,-234,94,-94
40.378,1.12,0.50,0.38,-234,31,-94
40.380,1.12,0.62,0.12,-250,16,-94
40.382,1.00,0.88,0.00,-266,-16,-109
40.384,1.00,1.12,0.25,-250,-16,-109
40.386,1.00,1.25,0.50,-219,-16,-109
40.388,1.25,1.38,0.62,-203,-16,-141
40.390,1.50,1.62,0.75,-188,-31,-172
40.392,1.75,2.00,0.88,-125,-31,-297
40.394,2.12,2.50,1.38,-94,-16,-375
40.396,2.62,3.12,1.38,-78,-31,-469
40.398,2.62,3.38,1.12,-109,-63,-516
40.400,2.62,4.25,0.38,-125,-94,-531
40.402,1.88,5.12,0.88,-109,-109,-500
40.404,0.88,5.25,0.62,-63,-109,-406
40.406,-0.25,4.62,0.75,-31,-125,-172
40.408,-1.38,3.62,0.75,16,-94,-63
40.410,-1.62,2.50,0.88,63,-47,0
40.412,-0.75,1.50,1.00,78,-16,47
40.414,0.00,1.12,1.38,94,0,78
40.416,0.50,0.75,1.38,94,31,94
40.418,0.88,0.25,1.00,78,47,109
40.420,1.12,0.00,0.25,63,16,109
40.422,1.38,-0.12,-0.12,31,-16,125
40.424,1.50,0.00,0.00,31,0,125
40.426,1.75,-0.12,0.25,47,0,125
40.428,1.62,-0.38,0.62,63,-16,125
40.430,1.50,-0.62,0.75,63,-31,125
40.432,1.38,-0.88,1.00,47,-47,125
40.434,1.25,-1.12,1.25,47,-63,125
40.436,1.12,-1.12,1.38,16,-63,156
40.438,1.00,-1.00,1.38,-16,-63,188
40.440,0.88,-1.12,1.00,-47,-63,219
40.442,0.88,-0.88,1.12,-63,-63,266
40.444,0.75,-0.88,1.00,-47,-63,297
40.446,0.75,-0.75,1.12,-47,-63,344
40.448,0.75,-1.00,1.00,-47,-63,375
40.450,0.62,-1.38,0.88,-63,-47,391
40.452,0.75,-1.88,0.88,-94,-47,375
40.454,0.75,-2.50,0.25,-125,-63,297
40.456,0.25,-2.50,0.25,-125,-63,219
40.458,0.25,-1.12,0.62,-94,-63,109
40.460,0.62,-0.38,0.25,-94,-78,16
40.462,0.50,0.25,0.00,-141,-78,-31
40.464,0.25,0.50,-0.50,-141,-63,-31
40.466,0.12,0.62,-0.62,-109,-63,-31
40.468,-0.12,0.62,-0.62,-78,-63,-16
40.470,-0.25,0.75,-0.50,-78,-47,-16
40.472,-0.25,0.88,-0.38,-63,-31,-16
40.474,-0.25,1.00,-0.25,-47,-31,-16
40.476,-0.25,1.25,-0.38,-47,-16,-16
40.478,-0.12,1.25,-0.38,-31,-16,-16
40.480,0.12,1.38,-0.38,-16,16,-31
40.482,0.38,1.38,-0.25,0,16,-31
40.484,0.75,1.25,-0.12,16,31,-31
40.486,1.00,1.25,0.00,31,31,-31
40.488,1.25,1.12,0.00,47,31,-31
40.490,1.50,0.88,0.00,63,47,-31
40.492,1.62,0.50,0.12,63,47,-31
40.494,1.62,0.12,0.12,94,47,-16
40.496,1.50,-0.12,0.38,94,31,-16
40.498,1.25,-0.38,0.50,94,31,-16
40.500,1.00,-0.50,0.50,94,31,0
40.502,0.75,-0.62,0.50,94,31,0
40.504,0.38,-0.75,0.50,78,31,0
40.506,0.00,-0.62,0.50,78,31,0
40.508,-0.12,-0.62,0.50,63,31,-16
40.510,-0.12,-0.75,0.50,63,47,-16
40.512,0.00,-0.75,0.62,63,47,-16
40.514,0.12,-0.88,0.75,63,63,-31
40.516,0.38,-0.88,0.88,47,78,-31
40.518,0.62,-0.88,0.88,47,78,-31
40.520,0.88,-0.75,0.88,31,78,-31
40.522,1.12,-0.75,0.88,16,78,-47
40.524,1.25,-0.62,1.00,16,78,-47
40.526,1.38,-0.50,1.00,0,78,-47
40.528,1.50,-0.38,1.00,0,78,-47
40.530,1.50,-0.12,0.88,0,63,-47
40.532,1.50,0.00,0.88,-16,63,-47
40.534,1.38,0.12,0.75,-16,47,-47
40.536,1.25,0.12,0.75,-16,47,-47
40.538,1.12,0.25,0.75,-16,31,-47
40.540,1.00,0.25,0.75,-16,31,-47
40.542,0.88,0.38,0.75,-16,31,-47
40.544,0.88,0.38,0.75,-16,31,-47
41.508,1.00,0.12,-0.12,0,0,0
41.510,1.00,0.12,-0.12,0,0,0
41.512,1.12,0.25,-0.12,0,0,0
41.514,0.75,0.62,-0.75,0,0,0
41.516,-0.50,0.88,-2.25,-16,0,0
41.518,-1.75,0.88,-4.00,-47,-31,0
41.520,-2.25,1.38,-6.25,-63,-63,-16
41.522,-3.00,1.12,-8.75,-63,-78,-16
41.524,-3.88,0.62,-10.50,-78,-125,-47
41.526,-5.00,-0.25,-10.00,31,-109,-47
41.528,-4.00,-1.12,-7.62,156,-31,-78
41.530,-3.12,-1.25,-4.25,203,141,-63
41.532,-0.25,-0.88,-1.12,188,375,-16
41.534,1.75,-1.00,2.00,172,563,31
41.536,2.88,-1.38,4.00,156,703,63
41.538,5.25,-1.12,5.25,156,656,63
41.540,7.75,-0.88,6.25,156,313,-47
41.542,8.75,-0.62,5.25,63,219,-109
41.544,7.00,0.50,4.38,-94,219,-125
41.546,3.50,0.25,3.00,-156,234,-94
41.548,2.38,-0.12,1.00,-188,172,-47
41.550,1.12,-0.25,0.62,-188,109,-16
41.552,0.25,-0.50,1.38,-125,141,-16
41.554,0.12,-0.50,2.50,-31,313,0
41.556,0.12,-0.75,3.12,-31,328,16
41.558,-0.12,-1.25,2.62,-63,313,47
41.560,-0.25,-1.00,2.00,-109,281,78
41.562,-0.12,-1.00,0.62,-156,219,78
41.564,1.62,0.00,0.25,-188,188,47
41.566,2.38,0.38,-0.25,-156,172,-16
41.568,2.75,0.88,-0.38,-125,141,-47
41.570,3.00,1.38,-0.25,-94,78,-63
41.572,2.75,1.38,0.38,-63,16,-78
41.574,2.62,1.38,1.25,-31,-16,-109
41.576,2.62,1.50,1.88,0,-16,-125
41.578,2.62,1.62,2.25,16,-16,-141
41.580,2.62,1.62,2.00,16,-16,-141
41.582,2.50,1.62,1.75,-16,-78,-125
41.584,2.00,1.62,1.75,-16,-109,-109
41.586,1.38,1.38,1.88,0,-141,-94
41.588,0.88,1.25,2.25,31,-141,-78
41.590,0.50,1.12,2.38,31,-141,-47
41.592,0.25,1.00,2.38,31,-125,-31
41.594,-0.12,0.75,2.38,31,-109,0
41.596,-0.12,0.62,1.88,31,-94,16
41.598,0.38,0.75,1.38,31,-94,47
41.600,0.62,0.88,1.00,31,-94,47
41.602,0.62,0.62,0.62,31,-94,47
41.604,0.50,0.25,0.75,47,-94,47
41.606,0.38,-0.12,0.88,78,-109,47
41.608,0.25,-0.50,1.00,94,-109,47
41.610,0.38,-0.62,1.12,94,-109,47
41.612,0.62,-0.75,1.25,63,-94,47
41.614,0.75,-0.88,1.25,63,-94,63
41.616,0.88,-0.88,1.25,47,-94,78
41.618,1.12,-0.88,1.38,47,-109,94
41.620,1.38,-0.75,1.25,31,-94,109
41.622,1.75,-0.75,1.12,16,-94,125
41.624,1.88,-0.62,1.12,16,-94,141
41.626,2.00,-0.62,1.00,0,-109,94
41.628,2.00,-0.38,1.00,0,-125,63
41.630,2.00,0.00,1.00,0,-125,31
41.632,1.75,0.00,0.75,-16,-141,0
41.634,1.62,0.00,0.62,-16,-141,0
41.636,1.50,-0.12,0.38,0,-156,0
41.638,1.12,-0.12,0.25,0,-156,-16
41.640,0.62,-0.38,0.00,0,-156,-16
41.642,0.38,-0.25,-0.12,0,-156,-16
41.644,0.00,-0.38,-0.12,0,-156,-16
41.646,-0.50,-0.25,-0.25,0,-156,-16
41.648,-0.75,-0.25,-0.25,0,-156,-31
41.650,-0.88,-0.12,-0.25,-16,-141,-31
41.652,-1.00,-0.12,-0.50,0,-109,-31
41.654,-1.25,-0.12,-0.75,-16,-78,-16
41.656,-1.25,0.00,-0.88,-16,-63,-16
41.658,-1.00,0.25,-1.00,-16,-63,-16
41.660,-0.50,0.38,-1.00,-16,-47,-16
41.662,-0.25,0.50,-0.75,0,-16,-16
41.664,0.00,0.38,-0.62,0,0,-16
41.666,0.25,0.38,-0.50,16,0,-16
41.668,0.50,0.38,-0.38,16,0,-16
41.670,0.62,0.38,-0.38,16,16,-16
41.672,0.75,0.38,-0.25,16,31,-16
41.674,0.75,0.38,-0.25,16,31,-16
41.676,0.62,0.25,-0.25,16,31,-16
41.678,0.62,0.12,-0.12,31,31,-16
41.680,0.75,0.00,-0.12,31,47,-16
41.682,0.88,-0.12,-0.12,31,47,-16
41.684,1.00,-0.12,-0.12,16,63,-16
41.686,1.12,-0.12,-0.12,16,63,-16
41.688,1.12,-0.12,-0.25,16,63,-16
41.690,1.12,0.00,-0.38,16,63,-16
41.692,0.88,0.12,-0.38,0,63,-16
41.694,0.50,0.12,-0.38,0,63,-16
41.696,0.12,0.12,-0.25,0,63,-16
41.698,-0.25,0.00,0.00,16,63,-16
41.700,-0.25,-0.12,0.25,16,63,-16
41.702,-0.12,-0.25,0.50,16,78,-16
41.704,0.00,-0.25,0.75,16,94,-16
41.706,0.12,-0.25,0.88,16,109,-16
41.880,1.12,0.12,-0.25,16,-16,0
41.882,1.00,0.12,-0.25,16,0,0
41.884,1.00,0.12,-0.25,16,0,0
41.886,1.12,0.12,-0.25,16,0,0
41.888,1.12,0.00,-1.00,0,0,0
41.890,-0.25,-0.12,-3.00,0,0,0
41.892,-2.25,-0.50,-6.25,-31,-47,16
41.894,-5.38,-0.88,-10.88,-78,-156,16
41.896,-7.88,-2.00,-16.00,-156,-297,16
41.898,-9.12,-2.25,-16.00,-297,-422,31
41.900,-8.75,-0.50,-15.38,-313,-328,-16
41.902,-7.62,0.25,-7.88,141,391,-63
41.904,-3.50,0.75,-2.62,281,656,0
41.906,0.12,0.38,0.88,266,859,16
41.908,0.25,-0.50,5.75,203,1047,0
41.910,4.50,0.38,5.75,234,1000,-16
41.912,8.75,1.00,13.38,313,859,-47
41.914,15.88,2.12,12.12,313,578,-78
41.916,15.12,1.50,6.00,-94,219,-203
41.918,7.12,1.12,5.75,-203,359,-156
41.920,3.12,0.38,2.12,-266,219,-94
41.922,0.75,-0.25,-1.00,-391,125,-31
41.924,0.12,-0.12,-0.75,-375,109,-16
41.926,-0.12,0.38,0.38,-234,219,-16
41.928,-0.75,0.62,1.88,-78,406,-47
41.930,-2.25,0.50,2.88,16,578,-94
41.932,-2.62,0.75,3.75,31,500,-109
41.934,-1.38,0.25,0.50,-94,266,-47
41.936,0.75,0.50,-1.75,-219,94,0
41.938,2.50,1.12,-2.00,-219,31,31
41.940,2.88,2.00,-0.88,-156,78,47
41.942,3.75,2.38,0.88,-47,125,31
41.944,4.50,2.50,2.12,16,63,0
41.946,5.12,2.38,3.12,109,-47,-63
41.948,5.38,2.12,3.62,94,-78,-63
41.950,5.38,1.88,3.62,78,-94,-16
41.952,4.88,1.38,3.38,47,-125,16
41.954,4.12,0.75,3.12,31,-172,47
41.956,3.50,0.75,3.38,47,-219,47
41.958,3.00,0.50,3.62,63,-266,47
41.960,2.50,0.25,3.88,63,-281,47
41.962,2.12,0.12,3.75,63,-281,63
41.964,1.50,-0.12,3.25,31,-281,63
41.966,0.62,-0.25,2.62,0,-297,78
41.968,-0.12,-0.12,2.00,-16,-297,94
41.970,-0.62,0.00,1.62,-31,-313,109
41.972,-1.50,-0.12,0.88,-31,-281,109
41.974,-2.25,-0.38,0.25,-16,-219,78
41.976,-3.00,0.25,0.25,47,-250,78
41.978,-3.50,-0.38,-0.88,47,-344,78
41.980,-3.88,-0.50,-1.12,-16,-391,109
41.982,-3.62,-0.12,-1.25,-16,-359,125
41.984,-1.88,0.12,-0.62,0,-281,109
41.986,-0.50,-0.38,-0.25,16,-203,63
41.988,0.00,-0.50,0.38,47,-156,31
41.990,0.50,-0.62,0.50,63,-203,31
41.992,1.00,-0.62,0.62,47,-250,16
41.994,1.12,-0.38,0.50,16,-250,0
41.996,1.50,-0.25,0.25,0,-234,-16
41.998,2.12,0.12,0.62,-16,-219,-31
42.000,3.50,0.50,0.50,0,-234,-16
42.002,3.88,0.75,1.12,16,-281,16
42.004,3.88,0.75,0.88,31,-250,47
42.006,2.75,0.25,0.38,16,-250,47
42.008,2.25,0.12,-0.25,16,-250,47
42.010,1.88,0.12,-0.62,0,-281,31
42.012,1.62,0.25,-0.75,0,-266,31
42.014,1.25,0.00,-1.12,0,-250,31
42.016,1.00,0.00,-1.50,16,-234,31
42.018,0.50,0.00,-1.75,16,-250,16
42.020,-0.38,0.00,-2.25,0,-250,16
42.022,-1.00,0.00,-2.25,0,-266,16
42.024,-1.50,-0.12,-2.00,16,-250,16
42.026,-1.62,-0.25,-1.25,31,-203,16
42.028,-2.12,-0.50,-1.00,47,-156,0
42.030,-2.25,-1.00,-1.25,47,-94,16
42.032,-1.75,-0.88,-1.62,16,-63,31
42.034,-0.25,0.00,-1.75,0,-63,0
42.036,0.00,0.25,-1.62,-16,-16,0
42.038,0.25,0.25,-1.50,0,0,0
42.040,0.38,0.00,-1.25,16,0,0
42.042,0.50,-0.25,-1.00,31,16,-16
42.044,0.62,-0.38,-1.00,31,31,-16
42.046,0.75,-0.38,-1.00,31,47,-16
42.048,0.62,-0.50,-1.00,16,78,-16
42.050,0.38,-0.50,-1.00,0,78,-16
42.052,0.12,-0.50,-1.00,0,94,-16
42.054,0.00,-0.50,-1.12,0,109,-16
42.056,-0.12,-0.50,-1.25,0,125,-16
42.058,-0.25,-0.50,-1.38,-16,141,-16
42.060,-0.38,-0.38,-1.25,-16,141,-16
42.062,-0.38,-0.38,-1.12,-16,172,-31
42.064,-0.25,-0.38,-0.88,-16,188,-31
42.066,0.00,-0.25,-0.75,-16,203,-31
42.068,0.12,-0.12,-0.62,-31,203,-31
42.070,0.25,0.00,-0.50,-31,219,-31
42.072,0.50,0.00,-0.38,-31,234,-31
42.074,0.75,0.00,-0.25,-31,234,-31
42.076,0.88,0.12,-0.12,-31,250,-31
42.078,1.00,0.12,0.12,-31,250,-31
42.080,1.00,0.12,0.38,-31,250,-31
42.082,1.00,0.12,0.62,-16,250,-31
42.084,0.88,0.12,0.88,-16,250,-31
42.086,0.88,0.12,1.00,-16,250,-31
42.088,0.88,0.12,1.00,-31,250,-31
42.090,0.75,0.25,1.00,-31,250,-31
42.092,0.75,0.25,1.00,-47,250,-31
42.094,0.75,0.25,1.00,-31,250,-31
42.096,0.75,0.25,1.00,-31,250,-31
42.098,0.88,0.38,1.12,-31,250,-31
42.100,1.00,0.38,1.12,-31,234,-31
42.102,1.12,0.38,1.12,-31,250,-31
42.104,1.25,0.25,1.25,-31,234,-31
42.106,1.38,0.25,1.25,-31,219,-31
42.108,1.50,0.25,1.25,-31,203,-16
42.110,1.62,0.25,1.25,-16,203,-16
42.112,1.75,0.25,1.38,-16,188,-16
42.114,1.88,0.25,1.38,-16,172,-16
42.116,2.00,0.25,1.50,-16,156,-16
42.118,1.88,0.25,1.62,-16,141,-16
42.120,1.88,0.25,1.75,-16,109,0
42.122,1.88,0.38,1.75,-16,94,0
42.124,2.00,0.38,1.88,-16,78,0
42.126,2.00,0.38,1.88,-16,63,0
42.128,2.00,0.50,1.75,-16,47,0
42.130,2.00,0.50,1.75,-16,31,0
42.132,2.12,0.50,1.88,-16,16,0
42.134,2.12,0.50,1.88,0,0,0
42.136,2.12,0.50,1.88,0,-16,0
42.138,2.12,0.38,1.88,0,-31,0
42.140,2.00,0.38,1.88,0,-47,0
42.142,1.88,0.38,1.75,0,-63,0
42.144,1.75,0.38,1.62,0,-78,16
42.146,1.62,0.38,1.62,0,-94,16
42.148,1.50,0.38,1.62,16,-94,16
42.150,1.38,0.38,1.50,16,-125,16
42.152,1.38,0.38,1.50,16,-125,16
42.154,1.25,0.25,1.38,16,-141,16
42.156,1.25,0.25,1.25,16,-141,16
42.158,1.25,0.25,1.12,16,-156,16
42.160,1.25,0.25,1.00,16,-156,16
42.162,1.38,0.25,0.88,16,-172,16
42.164,1.38,0.25,0.75,31,-172,16
42.166,1.38,0.25,0.75,31,-188,16
42.168,1.25,0.12,0.62,31,-188,16
42.170,1.25,0.12,0.50,31,-203,16
42.172,1.25,0.12,0.38,31,-203,16
42.174,1.12,0.12,0.25,31,-219,16
42.176,1.00,0.12,0.25,31,-219,31
42.178,0.75,0.00,0.12,31,-234,31
42.180,0.62,0.00,0.12,31,-234,31
42.182,0.50,0.00,0.12,31,-234,31
42.184,0.50,-0.12,0.12,31,-234,16
42.186,0.38,-0.12,0.12,31,-219,16
42.188,0.25,0.00,0.00,31,-219,16
42.190,0.12,0.00,0.00,31,-219,16
42.192,0.12,-0.12,-0.12,31,-203,16
42.194,0.12,-0.12,-0.25,31,-203,16
42.196,0.12,-0.12,-0.38,16,-188,16
42.198,0.12,-0.12,-0.38,16,-172,16
42.200,0.12,-0.12,-0.50,16,-172,16
42.202,0.25,-0.12,-0.50,31,-156,16
42.204,0.50,-0.25,-0.50,31,-141,0
42.206,0.62,-0.12,-0.75,16,-125,0
42.208,0.62,-0.25,-1.00,16,-109,0
42.210,0.62,-0.12,-1.12,0,-109,0
42.212,0.62,-0.12,-1.12,0,-109,0
42.214,0.50,-0.12,-1.00,16,-94,0
42.216,0.38,-0.12,-1.00,16,-94,0
42.218,0.38,-0.12,-1.00,16,-78,0
42.220,0.38,-0.12,-1.00,16,-78,0
42.222,0.38,-0.12,-1.12,0,-47,0
42.224,0.38,-0.12,-1.12,0,-47,0
42.226,0.38,0.00,-1.12,0,-31,0
42.228,0.38,0.00,-1.00,0,-16,0
42.230,0.38,0.00,-1.00,0,-16,0
42.232,0.50,0.00,-0.88,0,0,0
42.234,0.50,0.00,-1.00,0,16,-16
42.236,0.50,0.12,-1.00,0,31,-16
42.238,0.38,0.12,-1.00,0,47,-16
42.898,1.00,0.12,0.12,0,-16,0
42.900,1.00,0.12,0.12,0,-16,0
42.902,1.00,0.12,0.12,0,-16,0
42.904,1.38,0.00,0.00,0,-16,0
42.906,1.25,0.12,-1.38,0,-16,0
42.908,-1.25,-1.00,-4.25,-16,-31,16
42.910,-3.88,-1.38,-7.88,-47,-94,16
42.912,-7.25,-2.38,-14.75,-94,-219,31
42.914,-10.12,-3.75,-16.00,-219,-391,47
42.916,-10.25,-1.50,-16.00,-422,-469,63
42.918,-7.62,1.12,-11.12,0,313,-78
42.920,-4.00,1.00,-4.38,281,719,-63
42.922,0.12,0.62,0.62,391,953,-47
42.924,0.38,-0.12,6.62,375,1109,-31
42.926,3.50,0.50,7.62,375,1047,-47
42.928,7.00,1.25,12.38,406,844,-63
42.930,12.25,0.50,11.88,359,531,-63
42.932,12.75,0.00,8.00,172,172,-94
42.934,5.88,0.00,5.75,-188,281,-78
42.936,2.25,0.00,3.12,-219,344,-78
42.938,0.50,0.00,1.25,-313,359,-78
42.940,0.25,0.12,0.38,-344,297,-63
42.942,0.12,0.38,0.25,-266,297,-78
42.944,0.12,0.25,1.12,-109,375,-109
42.946,0.25,0.50,1.88,16,438,-125
42.948,2.62,0.12,1.75,-16,328,-78
42.950,3.38,0.12,1.12,-94,250,-31
42.952,3.38,0.88,1.38,-109,188,-16
42.954,2.38,1.25,1.38,-94,125,-31
42.956,1.88,1.38,1.25,-109,47,-31
42.958,2.00,1.50,1.62,-109,-16,-16
42.960,2.75,1.75,2.62,-63,-31,-31
42.962,3.12,2.12,3.38,31,31,-63
42.964,3.38,2.62,4.12,31,16,-63
42.966,3.50,2.62,4.12,31,-47,-47
42.968,3.50,2.12,3.75,0,-125,-31
42.970,3.38,1.50,3.62,0,-172,0
42.972,3.12,1.12,3.62,16,-188,16
42.974,2.75,0.88,3.50,47,-172,31
42.976,2.12,0.75,3.12,47,-219,63
42.978,1.38,0.75,2.62,31,-250,63
42.980,0.88,0.62,2.12,16,-281,63
42.982,0.12,0.38,1.62,16,-281,63
42.984,-0.12,0.25,1.50,16,-250,63
42.986,-0.38,0.25,1.50,16,-219,63
42.988,-0.75,0.12,2.00,16,-219,63
42.990,-1.12,-0.25,1.25,16,-203,63
42.992,-1.50,-0.38,1.38,31,-219,63
42.994,-2.00,-0.50,1.00,47,-219,63
42.996,-2.12,-0.75,0.62,47,-250,78
42.998,-0.75,-0.25,0.62,31,-281,78
43.000,-0.12,0.00,1.00,31,-266,78
43.002,0.50,-0.12,1.50,31,-203,63
43.004,1.00,-0.12,1.62,47,-203,47
43.006,1.88,0.00,1.75,47,-219,47
43.008,3.00,0.00,1.25,47,-234,63
43.010,4.00,0.00,1.12,31,-250,78
43.012,4.62,-0.12,1.00,31,-234,78
43.014,4.25,-0.25,0.62,31,-250,78
43.016,2.38,0.12,0.75,16,-281,78
43.018,1.50,0.00,0.50,16,-297,47
43.020,0.88,0.12,0.50,0,-359,31
43.022,0.12,0.12,0.50,16,-328,31
43.024,-0.38,0.00,0.12,16,-266,31
43.026,-0.50,-0.12,-0.38,16,-250,16
43.028,-0.75,-0.25,-0.62,0,-266,16
43.030,-0.88,-0.50,-0.75,0,-266,16
43.032,-1.12,-0.62,-1.00,16,-234,16
43.034,-1.38,-0.75,-1.25,0,-203,16
43.036,-1.50,-0.88,-1.62,0,-188,31
43.038,-1.12,-0.62,-2.00,-16,-188,31
43.040,-1.00,-0.12,-2.25,-16,-172,16
43.042,-1.50,0.25,-2.12,-31,-156,0
43.044,-1.62,0.25,-2.00,-16,-141,16
43.046,-1.62,0.12,-1.62,0,-141,0
43.048,-1.25,0.00,-1.38,31,-109,0
43.050,-0.50,0.00,-1.25,31,-47,0
43.052,-0.12,0.00,-1.25,16,-16,-16
43.054,0.12,0.12,-1.38,16,0,-16
43.056,0.25,0.12,-1.38,16,0,-16
43.058,0.38,0.00,-1.12,16,0,-16
43.060,0.50,-0.12,-0.88,31,16,-16
43.062,0.62,-0.25,-0.62,31,31,-16
43.064,0.62,-0.25,-0.62,31,63,-16
43.066,0.50,-0.12,-0.88,16,78,-16
43.068,0.50,-0.12,-1.12,0,78,-16
43.070,0.38,-0.12,-1.25,0,78,-16
43.072,0.25,-0.12,-1.25,0,94,-16
43.074,0.12,-0.25,-1.12,16,109,-16
43.076,-0.12,-0.25,-1.00,16,109,-16
43.078,-0.38,-0.25,-0.88,0,125,-31
43.080,-0.75,-0.25,-0.75,0,141,-31
43.082,-0.88,-0.25,-0.50,0,141,-31
43.084,-1.00,-0.25,-0.25,0,156,-31
43.086,-0.75,-0.25,-0.12,0,188,-31
43.088,-0.50,-0.25,0.12,0,203,-31
43.090,-0.25,-0.25,0.38,0,219,-31
43.092,0.12,-0.12,0.62,0,250,-31
43.094,0.50,0.00,0.75,-16,266,-31
43.096,1.00,0.12,0.88,-16,266,-47
43.098,1.50,0.12,1.00,-16,281,-47
43.100,1.88,0.25,1.00,-31,281,-31
43.102,1.88,0.38,1.12,-31,266,-47
43.104,1.88,0.38,1.12,-16,266,-47
43.106,1.62,0.38,1.25,-16,250,-47
43.108,1.50,0.25,1.38,-16,234,-31
43.110,1.50,0.25,1.38,-16,219,-31
43.112,1.50,0.25,1.38,-16,219,-31
43.114,1.38,0.25,1.25,-16,219,-31
43.116,1.12,0.25,1.25,-16,203,-31
43.118,1.00,0.25,1.25,-31,203,-31
43.120,1.00,0.25,1.25,-31,188,-31
43.122,1.00,0.25,1.38,-16,172,-31
43.124,1.00,0.25,1.50,-16,172,-31
43.126,1.00,0.38,1.50,-16,156,-31
43.128,0.88,0.38,1.62,-16,156,-31
43.130,1.00,0.38,1.62,-16,141,-31
43.132,1.25,0.38,1.75,-16,141,-31
43.134,1.38,0.38,1.88,-16,125,-31
43.136,1.62,0.38,1.88,-16,125,-31
43.138,1.88,0.38,2.00,-16,109,-31
43.140,1.88,0.50,2.12,-16,94,-16
43.142,2.00,0.50,2.12,-16,78,-16
43.144,2.12,0.62,2.12,-16,47,-16
43.146,2.12,0.75,2.12,-16,31,-16
43.148,2.25,0.75,2.12,-16,16,-16
43.150,2.25,0.75,2.12,0,0,-16
43.152,2.25,0.75,2.12,0,-16,-16
43.154,2.12,0.75,2.00,0,-31,0
43.156,1.88,0.75,2.00,0,-47,0
43.158,1.75,0.62,2.00,0,-63,0
43.160,1.62,0.75,1.88,0,-78,0
43.162,1.50,0.75,1.88,0,-94,0
43.164,1.50,0.75,1.75,16,-94,16
43.166,1.38,0.75,1.62,16,-125,16
43.168,1.38,0.75,1.50,16,-125,16
43.170,1.38,0.75,1.50,16,-141,16
43.172,1.38,0.62,1.50,16,-156,16
43.174,1.38,0.62,1.50,31,-156,16
43.176,1.38,0.50,1.38,31,-156,16
43.178,1.38,0.50,1.38,31,-172,16
43.180,1.38,0.50,1.25,31,-188,16
43.182,1.38,0.50,1.12,31,-188,16
43.184,1.38,0.50,1.00,31,-203,16
43.186,1.25,0.50,0.88,31,-203,16
43.188,1.25,0.38,0.88,31,-219,16
43.190,1.25,0.38,0.75,31,-219,31
43.192,1.12,0.25,0.62,47,-219,31
43.194,1.00,0.25,0.50,47,-234,31
43.196,0.88,0.25,0.38,47,-234,31
43.198,0.75,0.25,0.25,31,-250,31
43.200,0.62,0.12,0.12,31,-250,31
43.202,0.50,0.12,0.00,31,-250,16
43.204,0.38,0.00,0.00,31,-250,16
43.206,0.25,-0.12,-0.12,31,-250,16
43.208,0.25,-0.12,-0.12,47,-234,16
43.210,0.00,0.00,-0.12,31,-234,16
43.212,0.00,-0.12,-0.25,31,-234,16
43.214,0.00,-0.12,-0.25,31,-219,16
43.216,0.12,-0.25,-0.38,31,-219,16
43.218,0.12,-0.25,-0.50,16,-203,16
43.220,0.12,-0.12,-0.50,16,-188,16
43.222,0.12,0.00,-0.62,16,-188,16
43.224,0.25,0.00,-0.75,0,-172,16
43.226,0.25,0.00,-0.75,0,-156,16
43.228,0.38,0.12,-0.88,0,-156,16
43.230,0.50,0.25,-1.00,0,-141,16
43.232,0.50,0.38,-1.12,0,-141,16
43.234,0.38,0.38,-1.25,0,-125,0
43.236,0.50,0.38,-1.25,0,-125,0
43.238,0.50,0.38,-1.25,0,-94,0
43.240,0.50,0.38,-1.25,0,-94,0
43.242,0.38,0.38,-1.25,0,-78,0
43.244,0.38,0.38,-1.25,0,-78,0
43.246,0.38,0.38,-1.25,0,-63,0
43.248,0.50,0.38,-1.25,0,-63,0
43.250,0.50,0.38,-1.25,0,-47,0
43.252,0.50,0.38,-1.25,0,-16,0
43.254,0.62,0.38,-1.25,0,-16,0
43.256,0.62,0.38,-1.25,16,0,0
43.900,1.00,0.12,0.00,-16,0,16
43.902,1.00,0.12,0.00,-16,0,16
43.904,1.00,0.12,0.00,-16,0,16
43.906,0.75,0.00,-0.38,-16,0,16
43.908,-0.25,0.38,-1.50,-16,-16,16
43.910,-1.50,0.62,-3.00,-31,-47,16
43.912,-3.00,0.00,-5.62,-63,-78,16
43.914,-3.62,-1.12,-9.12,-78,-141,0
43.916,-4.38,-2.50,-11.50,-78,-188,-16
43.918,-5.25,-2.75,-10.62,-47,-219,-47
43.920,-6.50,-3.00,-9.12,78,-31,-63
43.922,-5.50,-3.38,-6.38,94,203,-63
43.924,-2.38,-2.88,-3.38,125,391,-47
43.926,0.38,-1.62,-0.62,141,563,-47
43.928,0.50,-1.25,3.12,109,719,-31
43.930,2.38,-0.88,3.88,63,797,-31
43.932,6.00,-0.25,5.38,47,656,-78
43.934,8.75,1.12,5.50,16,281,-203
43.936,12.12,2.62,4.25,-78,188,-266
43.938,9.50,4.00,3.00,-188,281,-297
43.940,5.00,2.88,1.38,-234,359,-250
43.942,3.25,1.88,0.50,-203,250,-172
43.944,2.00,1.25,0.88,-125,141,-109
43.946,0.50,0.88,1.88,-31,156,-63
43.948,-0.25,0.50,2.50,0,250,-47
43.950,-0.38,0.25,2.75,-31,344,-47
43.952,-0.50,0.25,2.38,-63,375,-63
43.954,-1.00,0.12,1.38,-78,391,-78
43.956,-0.62,0.38,0.12,-94,359,-78
43.958,1.38,1.00,-0.75,-109,234,-47
43.960,2.50,1.50,-0.62,-125,125,-31
43.962,2.88,2.00,0.50,-94,78,-16
43.964,3.25,2.12,1.75,47,63,-47
43.966,3.62,2.00,2.38,78,31,-47
43.968,3.75,1.62,2.62,63,-16,-16
43.970,3.62,1.50,2.50,47,-47,16
43.972,3.38,1.38,2.25,31,-63,31
43.974,3.12,1.00,2.25,16,-94,47
43.976,3.12,0.62,2.62,31,-125,47
43.978,2.88,0.25,2.88,78,-156,63
43.980,2.38,0.00,3.25,78,-172,78
43.982,1.75,0.00,3.25,63,-188,78
43.984,1.12,0.00,2.88,47,-234,94
43.986,0.25,0.12,2.38,0,-250,78
43.988,-0.38,0.00,2.00,-31,-234,78
43.990,-0.62,0.00,1.62,-47,-219,78
43.992,-1.00,0.00,1.38,-16,-188,78
43.994,-1.38,-0.12,1.12,0,-172,63
43.996,-1.50,0.00,1.12,16,-188,63
43.998,-1.62,-0.25,0.88,16,-203,63
44.000,-1.25,-0.38,0.75,0,-203,63
44.002,-0.25,-0.12,1.00,0,-203,63
44.004,0.12,-0.12,1.25,16,-172,63
44.006,0.88,-0.12,1.25,0,-156,63
44.008,1.62,-0.12,1.12,0,-172,63
44.010,2.12,0.00,1.12,0,-172,63
44.012,2.62,0.12,1.12,0,-172,63
44.014,3.12,0.25,0.88,0,-172,63
44.016,3.50,0.62,0.75,-16,-188,78
44.018,3.25,1.00,0.75,-16,-203,78
44.020,2.12,1.00,0.62,-16,-203,63
44.022,1.38,0.88,0.38,0,-250,63
44.024,0.75,0.62,0.25,16,-250,63
44.026,0.25,0.50,0.25,16,-234,47
44.028,0.00,0.25,0.12,31,-219,47
44.030,-0.38,0.12,-0.12,31,-203,47
44.032,-0.62,0.00,-0.12,31,-188,47
44.034,-0.88,-0.12,-0.25,31,-172,31
44.036,-1.00,-0.38,-0.38,47,-141,31
44.038,-1.12,-0.50,-0.62,47,-125,31
44.040,-1.00,-0.75,-1.00,31,-109,31
44.042,-0.38,-0.75,-1.25,16,-94,31
44.044,0.25,-0.75,-1.25,31,-78,31
44.046,0.62,-0.62,-1.12,31,-63,31
44.048,0.88,-0.75,-1.12,31,-47,31
44.050,0.75,-0.75,-1.12,31,-47,31
44.052,0.50,-0.62,-1.12,31,-63,31
44.054,0.00,-0.50,-1.25,16,-63,16
44.056,-0.38,-0.50,-1.25,16,-63,16
44.058,-0.75,-0.50,-1.12,16,-63,0
44.060,-0.75,-0.62,-1.00,16,-47,0
44.062,-0.62,-0.62,-0.75,16,-31,-16
44.064,-0.50,-0.62,-0.50,31,0,-16
44.066,-0.25,-0.75,-0.38,16,31,-31
44.068,0.00,-0.75,-0.50,16,47,-47
44.070,0.12,-0.75,-0.62,0,47,-47
44.072,0.12,-0.62,-0.62,0,63,-47
44.074,0.12,-0.50,-0.50,0,78,-47
44.076,0.12,-0.38,-0.50,-16,78,-47
44.078,0.00,-0.25,-0.38,-16,94,-63
44.080,-0.12,-0.25,-0.25,-16,109,-63
44.082,-0.12,-0.12,-0.25,-16,109,-63
44.084,0.00,-0.12,-0.12,-16,125,-63
44.086,0.12,0.00,-0.12,-16,141,-63
44.088,0.25,0.00,-0.12,-16,156,-63
44.090,0.38,0.12,-0.12,-31,156,-63
44.092,0.50,0.25,0.00,-31,172,-63
44.094,0.62,0.25,0.12,-16,172,-63
44.096,0.75,0.38,0.25,-16,172,-47
44.098,0.88,0.50,0.38,-16,188,-47
44.100,1.00,0.62,0.50,-16,188,-47
44.102,1.00,0.75,0.62,-16,188,-47
44.104,1.00,0.75,0.62,-16,188,-47
44.106,1.00,0.88,0.75,-16,188,-47
44.108,1.12,0.75,0.88,-16,188,-47
44.110,1.25,0.75,1.00,0,188,-47
44.112,1.25,0.75,1.12,0,188,-47
44.114,1.25,0.62,1.12,16,188,-31
44.116,1.12,0.50,1.25,16,172,-31
44.118,1.12,0.38,1.25,16,172,-31
44.120,1.12,0.25,1.38,16,156,-31
44.122,1.00,0.12,1.50,16,156,-31
44.124,0.88,0.00,1.50,16,156,-31
44.126,0.88,0.00,1.62,16,156,-31
44.128,1.00,0.00,1.62,16,141,-31
44.130,1.12,0.00,1.62,0,141,-16
44.132,1.38,0.00,1.62,0,141,-16
44.134,1.50,0.12,1.50,0,141,-16
44.136,1.62,0.12,1.50,-16,125,-16
44.138,1.75,0.25,1.50,-16,94,-16
44.960,1.00,0.12,-0.25,0,-16,0
44.962,1.00,0.12,-0.25,0,-16,0
44.964,1.00,0.12,-0.25,0,-16,0
44.966,1.00,0.12,-0.25,0,-16,0
44.968,0.88,0.38,-1.00,0,-16,0
44.970,-1.12,-0.12,-3.88,-16,-16,16
44.972,-3.62,-0.62,-8.12,-47,-63,16
44.974,-8.38,-1.25,-16.00,-94,-172,16
44.976,-12.88,-3.38,-16.00,-203,-406,47
44.978,-11.75,-0.88,-16.00,-453,-594,78
44.980,-8.75,1.75,-12.38,-31,344,-47
44.982,-5.75,2.12,-3.88,406,859,0
44.984,-0.50,1.38,1.62,516,1078,78
44.986,-0.25,-0.25,7.88,438,1250,63
44.988,3.00,0.25,11.50,391,1219,63
44.990,6.88,-1.00,15.88,422,1000,16
44.992,15.88,-0.12,15.88,391,828,16
44.994,15.88,-2.25,9.00,-16,78,-47
44.996,8.38,-1.75,6.25,-188,328,-31
44.998,4.00,-0.62,5.38,-234,328,-47
45.000,0.75,-1.38,-0.38,-469,281,16
45.002,0.25,-0.75,-0.62,-547,172,47
45.004,0.12,0.00,0.38,-422,156,47
45.006,-0.62,0.12,1.12,-234,328,31
45.008,-2.62,-0.12,1.62,-78,563,0
45.010,-3.62,0.38,3.38,78,563,0
45.012,-2.38,-0.12,2.00,-63,266,31
45.014,0.50,0.12,0.12,-172,63,16
45.016,1.38,0.25,-0.12,-203,16,-16
45.018,2.88,1.12,-0.12,-172,141,-16
45.020,4.75,1.75,1.50,-109,203,-31
45.022,5.75,2.25,2.25,-47,63,-31
45.024,5.75,2.38,3.50,47,-31,-63
45.026,6.00,2.38,3.88,47,-63,-78
45.028,5.50,2.12,3.75,16,-78,-47
45.030,4.62,1.88,3.38,-16,-109,-16
45.032,4.38,2.00,3.25,-31,-156,16
45.034,4.12,2.00,3.50,-16,-203,16
45.036,3.62,1.75,3.50,0,-234,31
45.038,2.75,1.38,3.38,47,-281,47
45.040,2.00,1.12,3.00,47,-313,47
45.042,1.25,1.12,2.62,47,-344,63
45.044,-0.12,0.88,2.38,31,-328,63
45.046,-0.50,0.75,2.62,31,-281,78
45.048,-1.25,0.50,2.25,16,-250,63
45.050,-2.25,-0.12,0.62,-16,-172,31
45.052,-3.00,-0.12,1.62,47,-172,31
45.054,-3.62,0.25,1.50,156,-297,63
45.056,-4.25,-0.75,0.75,125,-359,109
45.058,-4.25,-1.62,0.25,47,-297,141
45.060,-2.00,-1.25,1.12,31,-203,141
45.062,-1.12,-0.88,1.50,78,-109,109
45.064,0.25,-0.62,1.88,78,-78,78
45.066,0.88,-0.25,1.62,63,-141,47
45.068,1.12,-0.12,1.00,16,-203,0
45.070,3.88,0.25,1.25,0,-156,16
45.072,6.12,0.50,0.62,0,-188,47
45.074,8.25,0.50,0.75,47,-203,94
45.076,8.38,-0.12,1.12,94,-219,109
45.078,4.38,-0.62,1.25,94,-234,109
45.080,2.50,-0.38,1.12,78,-281,78
45.082,1.50,-0.50,0.62,-16,-469,16
45.084,0.38,-0.38,0.88,-31,-406,16
45.086,0.25,0.00,1.12,-16,-281,16
45.088,-0.38,-0.12,0.62,0,-172,31
45.090,-1.62,-0.50,0.62,-16,-94,31
45.092,-2.62,-1.25,-0.75,-47,-125,31
45.094,-3.50,-1.75,-1.00,-47,-219,47
45.096,-3.75,-2.00,-1.50,0,-313,63
45.098,-3.25,-1.75,-2.12,-31,-234,47
45.100,-0.88,-0.50,-2.00,-47,-141,16
45.102,-0.12,0.12,-2.12,-78,-31,-16
45.104,0.12,0.62,-2.25,-94,-16,-16
45.106,-0.88,0.62,-2.38,-63,-63,-16
45.108,-1.50,0.62,-2.25,-31,-125,0
45.110,-1.62,0.50,-2.00,0,-109,-16
45.112,-0.88,0.38,-1.50,0,-63,-16
45.114,-0.25,0.38,-1.25,16,-16,-31
45.116,0.25,0.38,-1.00,16,16,-31
45.118,0.50,0.38,-1.12,16,16,-31
45.120,0.50,0.25,-1.12,16,16,-31
45.122,0.50,0.00,-1.00,16,16,-31
45.124,0.38,-0.12,-0.75,31,31,-31
45.126,0.38,-0.12,-0.50,31,63,-31
45.128,0.25,-0.12,-0.62,16,63,-31
45.130,-0.12,0.00,-0.88,16,78,-16
45.132,-0.25,0.00,-1.12,0,78,-16
45.134,-0.38,0.00,-1.25,0,94,-16
45.136,-0.25,0.00,-1.12,0,109,-16
45.138,-0.12,0.00,-1.00,16,141,-16
45.140,0.12,0.00,-0.88,16,156,-31
45.142,0.12,0.00,-0.88,16,172,-31
45.144,-0.12,-0.12,-0.75,0,172,-31
45.146,-0.38,-0.25,-0.50,16,172,-31
45.148,-0.38,-0.25,-0.25,16,172,-31
45.150,-0.38,-0.25,0.12,16,188,-31
45.152,-0.25,-0.38,0.50,16,203,-31
45.154,-0.12,-0.38,0.75,16,234,-31
45.156,0.00,-0.38,1.00,0,234,-31
45.158,0.25,-0.25,1.12,0,250,-31
45.160,0.50,-0.12,1.25,-16,250,-31
45.162,0.88,-0.12,1.38,-16,266,-31
45.164,0.75,-0.12,1.50,-31,281,-31
45.166,1.12,0.00,1.50,-31,266,-31
45.168,0.88,0.12,1.62,-31,234,-47
45.170,1.12,0.25,1.50,-31,250,-63
45.172,1.38,0.00,1.00,-31,266,-78
45.174,2.25,0.38,1.62,-47,250,-94
45.176,3.00,0.75,1.50,-16,219,-94
45.178,3.38,1.00,1.50,-16,203,-94
45.180,2.88,1.12,1.50,-16,203,-94
45.182,1.25,0.62,1.12,-31,203,-94
45.184,0.75,0.25,1.00,-31,141,-31
45.186,0.50,0.12,1.25,-16,141,-16
45.188,0.25,0.12,1.62,-16,156,-16
45.190,0.25,0.12,1.75,-16,188,-16
45.192,0.38,0.25,1.88,-16,172,-16
45.194,0.62,0.25,1.88,-16,156,-16
45.196,1.12,0.38,1.88,-16,141,-16
45.198,1.50,0.38,1.75,-31,141,-16
45.200,1.88,0.50,1.75,-31,141,0
45.202,2.25,0.50,1.88,-31,125,0
45.204,2.50,0.50,1.88,-16,94,0
45.206,2.62,0.62,1.88,-16,63,0
45.208,2.62,0.62,2.12,0,47,0
45.210,2.62,0.75,2.25,0,31,0
45.212,2.50,0.75,2.38,0,0,0
45.214,2.00,0.38,2.25,0,-16,0
45.216,1.88,0.25,2.12,16,-31,16
45.218,1.62,0.25,2.12,0,-63,16
45.220,1.38,0.25,2.00,0,-63,16
45.222,1.25,0.25,2.00,0,-78,16
45.224,1.00,0.25,2.00,0,-94,16
45.226,0.88,0.25,1.88,0,-109,16
45.228,0.75,0.25,1.75,0,-109,16
45.230,0.75,0.25,1.62,0,-109,16
45.232,0.88,0.25,1.62,0,-125,16
45.234,1.00,0.25,1.50,0,-125,16
45.236,1.00,0.25,1.50,16,-125,16
45.238,1.12,0.38,1.38,16,-141,16
45.240,1.12,0.38,1.38,16,-141,16
45.242,1.25,0.38,1.38,16,-156,16
45.244,1.38,0.38,1.38,16,-172,16
45.246,1.38,0.38,1.25,16,-172,16
45.248,1.38,0.38,1.25,16,-172,16
45.250,1.38,0.25,1.12,16,-188,16
45.252,1.25,0.25,1.12,31,-188,16
45.254,1.25,0.25,1.12,31,-188,16
45.256,1.12,0.25,1.00,31,-203,16
45.258,1.00,0.25,0.88,31,-203,16
45.260,1.00,0.25,0.75,31,-203,16
45.262,0.88,0.25,0.62,31,-203,16
45.264,0.75,0.25,0.38,31,-203,16
45.266,0.62,0.25,0.25,31,-219,16
45.268,0.50,0.12,0.25,31,-219,16
45.270,0.38,0.12,0.12,31,-203,16
45.272,0.38,0.12,0.12,31,-203,16
45.274,0.38,0.00,0.00,47,-203,16
45.276,0.25,-0.12,-0.12,47,-188,16
45.278,0.12,-0.12,-0.12,31,-188,16
45.280,0.12,-0.12,-0.25,31,-188,16
45.282,0.00,-0.25,-0.25,47,-188,16
45.284,0.00,-0.25,-0.25,47,-172,16
45.286,-0.12,-0.25,-0.38,31,-156,0
45.288,-0.12,-0.25,-0.38,31,-156,0
45.290,-0.12,-0.25,-0.38,31,-141,0
45.292,0.00,-0.25,-0.50,31,-125,0
45.294,0.12,-0.25,-0.50,16,-125,0
45.296,0.25,-0.12,-0.62,16,-109,0
45.298,0.25,-0.12,-0.62,16,-94,0
45.300,0.25,-0.12,-0.62,16,-78,0
45.302,0.38,-0.12,-0.62,16,-78,0
45.304,0.38,-0.12,-0.62,16,-63,0
45.306,0.38,-0.12,-0.62,16,-63,0
45.308,0.50,-0.12,-0.62,0,-47,-16
45.310,0.50,-0.12,-0.75,0,-47,-16
45.312,0.50,0.00,-0.62,0,-31,-16
45.314,0.50,0.00,-0.62,0,-16,-16
45.316,0.50,0.00,-0.62,0,-16,-16
45.318,0.50,0.12,-0.50,0,0,-16
46.130,1.00,0.12,-0.25,-16,16,16
46.132,1.00,0.12,-0.25,-16,16,16
46.134,1.38,-0.50,-0.50,-16,16,16
46.136,1.62,-0.12,-0.12,0,16,16
46.138,1.88,-1.38,-0.62,-16,16,16
46.140,2.25,-1.88,-1.12,-16,16,16
46.142,2.75,-2.88,-1.88,-31,0,16
46.144,3.75,-3.12,-2.12,-63,-16,16
46.146,3.75,-3.88,-2.88,-94,-31,16
46.148,3.50,-4.75,-3.88,-125,-63,47
46.150,2.12,-5.25,-4.38,-156,-125,94
46.152,-0.38,-4.50,-5.00,-203,-188,141
46.154,-2.12,-3.50,-6.12,-266,-203,141
46.156,-2.62,-1.50,-4.88,-328,-219,94
46.158,-2.25,0.25,-2.38,-250,-156,31
46.160,-2.25,0.88,0.12,-156,-16,16
46.162,-2.75,1.12,1.75,-78,125,31
46.164,-3.00,1.62,3.00,-63,188,78
46.166,-3.12,2.38,3.50,-63,188,188
46.168,-3.50,3.25,2.88,-125,156,328
46.170,-1.38,4.50,3.00,-125,188,406
46.172,1.62,4.88,1.75,-141,266,297
46.174,4.12,4.25,0.88,-125,313,203
46.176,6.62,3.88,0.62,-94,344,172
46.178,9.38,3.00,-1.00,-63,328,203
46.180,10.12,2.25,-1.00,-47,234,219
46.182,7.38,1.25,-1.62,0,219,234
46.184,3.62,2.50,-1.75,16,188,203
46.186,1.50,2.75,-2.25,-47,-109,47
46.188,-0.25,2.62,-2.25,-63,-172,31
46.190,-1.88,2.25,-1.50,-16,-109,16
46.192,-2.25,1.88,-0.62,94,31,0
46.194,-2.88,1.50,-0.12,172,125,-47
46.196,-3.50,0.88,0.00,172,219,-94
46.198,-2.62,0.50,-1.12,125,219,-109
46.200,0.00,0.88,-0.88,94,47,0
46.202,1.00,1.00,-0.75,125,125,78
46.204,1.50,0.62,0.12,156,172,109
46.206,2.12,0.38,0.62,172,125,125
46.208,2.62,0.12,0.88,203,47,109
46.210,3.50,-0.12,2.38,219,16,125
46.212,4.75,-0.75,2.12,188,-16,141
46.214,5.62,-1.38,1.75,109,0,266
46.216,6.00,-1.75,1.88,141,16,406
46.218,4.50,-2.75,2.25,156,0,563
46.220,2.88,-4.25,2.38,109,-16,688
46.222,2.00,-6.50,1.50,31,-94,703
46.224,0.25,-6.88,1.75,-31,-109,625
46.226,-1.88,-4.75,2.62,16,-109,516
46.228,-3.12,-4.50,1.75,-78,-219,344
46.230,-3.75,-3.50,1.75,-156,-141,250
46.232,-4.12,-2.12,1.75,-125,-47,172
46.234,-4.00,-1.00,1.75,-109,31,109
46.236,-1.75,-1.12,1.12,-125,63,31
46.238,-0.12,-1.50,0.50,-156,63,-63
46.240,1.00,-1.50,0.50,-156,78,-125
46.242,1.62,-1.38,0.38,-125,78,-156
46.244,1.62,-0.88,0.38,-156,31,-203
46.246,1.50,-0.25,0.50,-156,16,-234
46.248,1.38,0.25,0.50,-156,16,-250
46.250,1.25,0.50,0.38,-156,16,-266
46.252,1.00,0.75,0.12,-141,31,-281
46.254,1.38,1.25,0.38,-109,63,-313
46.256,1.62,1.62,0.25,-63,63,-359
46.258,2.12,2.38,-0.38,-78,0,-531
46.260,2.62,3.00,-1.50,-78,-16,-609
46.262,2.38,4.38,-0.38,-63,0,-672
46.264,2.00,5.50,-0.38,16,0,-641
46.266,1.88,5.75,-0.50,16,-16,-547
46.268,0.62,5.12,-0.75,16,-16,-406
46.270,0.00,2.75,-1.12,47,0,-234
46.272,0.50,1.75,-0.62,172,16,16
46.274,0.62,1.00,0.12,203,47,31
46.276,0.62,0.38,0.62,203,63,47
46.278,0.38,0.25,0.62,172,47,31
46.280,0.00,0.12,0.50,156,31,16
46.282,-0.25,0.00,0.25,141,16,16
46.284,-0.25,-0.12,0.25,125,31,31
46.286,0.00,-0.38,0.38,125,63,31
46.288,0.00,-0.62,0.62,141,63,31
46.290,0.12,-0.88,0.88,141,78,31
46.292,0.25,-1.12,1.12,125,78,31
46.294,0.50,-1.25,1.25,109,78,47
46.296,0.62,-1.12,1.38,94,78,47
46.298,0.75,-1.12,1.38,63,78,47
46.300,1.00,-0.88,1.25,31,78,63
46.302,1.12,-1.00,0.75,-16,63,109
46.304,1.25,-1.00,0.75,-31,63,156
46.306,1.38,-0.88,0.88,-16,63,219
46.308,1.62,-0.75,0.88,0,63,266
46.310,1.75,-0.75,1.12,0,63,313
46.312,1.75,-1.00,1.00,-16,63,344
46.314,1.12,-1.62,1.00,-47,47,359
46.316,0.75,-2.38,0.62,-94,16,328
46.318,0.38,-2.62,0.50,-94,0,234
46.320,-0.38,-1.25,1.12,-78,16,125
46.322,0.00,-0.38,0.88,-78,16,31
46.324,0.38,0.25,0.75,-125,16,-47
46.326,0.38,0.75,0.75,-141,16,-78
46.328,0.50,0.75,0.50,-109,47,-78
46.330,0.75,1.00,0.50,-47,31,-109
46.332,1.00,0.88,0.62,-31,31,-125
46.334,1.12,0.88,0.88,-31,47,-156
46.336,1.25,1.00,0.75,-31,47,-156
46.338,1.50,1.00,0.88,-31,31,-172
46.340,1.50,1.12,0.88,-16,31,-188
46.342,1.50,1.12,0.88,-16,31,-188
46.344,1.62,1.25,0.88,0,31,-172
46.346,1.50,1.38,0.88,0,31,-141
46.348,1.50,1.50,0.75,0,31,-109
46.350,1.62,1.50,0.75,0,31,-78
46.352,1.50,1.38,0.62,16,31,-31
46.354,1.25,0.75,0.50,16,16,16
46.356,1.12,0.50,0.62,31,16,47
46.358,1.12,0.25,0.88,47,16,78
46.360,1.00,0.12,0.88,47,16,63
46.362,1.00,-0.12,0.88,47,0,63
46.364,0.88,-0.25,0.75,47,0,63
46.366,0.88,-0.50,0.75,47,0,63
46.368,0.88,-0.62,0.88,47,0,47
46.370,0.75,-0.88,0.88,47,-16,47
46.372,0.75,-1.00,1.00,31,-16,47
46.374,0.62,-1.00,1.12,31,-16,47
46.376,0.62,-1.12,1.12,16,-16,47
46.378,0.50,-1.00,1.00,16,-31,47
46.380,0.50,-1.12,1.00,0,-31,47
46.382,0.50,-1.00,0.88,-16,-31,47
46.384,0.50,-1.00,0.88,-16,-31,47
46.386,0.50,-1.00,0.88,-16,-31,47
46.388,0.62,-0.88,0.88,-31,-31,31
46.390,0.75,-0.88,0.75,-31,-31,31
46.392,0.88,-0.62,0.75,-31,-31,16
46.394,1.00,-0.38,0.75,-47,-31,0
46.396,1.12,-0.25,0.62,-47,-31,-16
46.398,1.12,0.00,0.62,-47,-47,-16
46.400,1.25,0.00,0.50,-47,-47,-16
46.402,1.25,0.12,0.50,-47,-47,-16
46.404,1.12,0.25,0.50,-31,-47,-31
46.406,1.00,0.38,0.50,-31,-63,-31
46.408,1.00,0.38,0.50,-31,-63,-31
46.576,1.00,0.25,-0.38,16,-78,0
46.578,1.00,0.12,-0.50,16,-63,0
46.580,1.12,0.12,-0.62,16,-63,0
46.582,1.62,-0.25,-0.62,16,-63,0
46.584,1.88,-1.00,-0.88,31,-63,0
46.586,2.12,-1.88,-1.12,16,-63,0
46.588,2.50,-3.00,-2.00,31,-78,0
46.590,3.25,-3.88,-3.25,16,-94,16
46.592,3.50,-4.25,-3.00,-94,-141,94
46.594,3.25,-5.38,-3.88,-188,-156,172
46.596,2.00,-6.75,-4.75,-266,-203,281
46.598,-0.25,-7.75,-5.38,-297,-234,375
46.600,-3.12,-6.75,-5.75,-328,-219,406
46.602,-4.75,-3.62,-4.62,-359,-219,406
46.604,-3.88,-0.88,-2.50,-406,-250,344
46.606,-3.12,0.88,-0.38,-344,-94,156
46.608,-3.00,2.12,1.12,-281,47,172
46.610,-2.50,3.12,3.25,-234,156,297
46.612,-3.12,4.25,2.75,-188,219,516
46.614,-2.62,6.75,2.50,-188,234,766
46.616,0.38,9.88,4.88,-125,203,938
46.618,5.50,9.75,2.00,-141,234,828
46.620,7.12,5.75,-0.25,-344,469,344
46.622,8.75,2.88,-1.38,-156,516,344
46.624,11.50,0.38,-3.75,-16,328,422
46.626,10.62,-0.62,-3.62,63,203,438
46.628,7.12,0.62,-2.00,94,172,406
46.630,4.50,2.88,-2.00,16,94,234
46.632,1.62,3.62,-2.38,-63,-78,109
46.634,-0.38,3.88,-2.62,-109,-203,78
46.636,-2.12,4.25,-2.00,16,-125,63
46.638,-3.62,4.38,-2.62,156,31,-47
46.640,-4.62,4.12,-1.50,219,156,-172
46.642,-6.00,4.12,-1.88,219,172,-250
46.644,-4.75,2.25,-2.62,188,109,-203
46.646,-1.12,1.62,-2.50,219,47,-31
46.648,0.00,1.12,-1.12,281,78,141
46.650,0.62,0.38,0.88,359,281,234
46.652,1.75,-0.12,1.62,359,172,219
46.654,2.38,-0.50,1.62,375,0,203
46.656,2.62,-0.75,1.88,328,-78,203
46.658,4.62,-1.88,2.25,266,-31,234
46.660,6.50,-3.50,1.62,172,0,297
46.662,7.12,-4.62,1.88,141,31,422
46.664,3.88,-7.62,3.50,297,16,859
46.666,1.12,-12.00,2.00,188,-31,953
46.668,-1.25,-14.38,0.12,94,-78,859
46.670,-3.38,-9.12,2.88,172,-172,625
46.672,-3.75,-6.88,2.38,78,-188,391
46.674,-3.62,-4.62,1.00,-219,-141,203
46.676,-3.25,-2.38,1.38,-328,-63,78
46.678,-3.12,-1.12,1.00,-266,16,16
46.680,-3.50,-0.38,1.38,-141,63,63
46.682,-4.00,-0.38,1.38,-94,47,94
46.684,-4.25,-0.50,1.00,-94,63,109
46.686,-4.50,-0.50,0.62,-94,94,94
46.688,-2.00,-0.25,0.38,-125,141,0
46.690,-0.50,-0.38,0.00,-156,172,-141
46.692,0.62,-0.12,0.00,-172,203,-234
46.694,0.75,0.12,-0.12,-156,156,-297
46.696,0.88,0.38,-0.50,-156,141,-328
46.698,1.38,0.38,-1.00,-141,109,-359
46.700,1.88,0.38,-0.62,-94,109,-391
46.702,3.12,0.38,0.00,-47,125,-422
46.704,4.38,0.75,0.12,-31,63,-500
46.706,5.38,1.50,-0.38,-31,47,-609
46.708,4.88,3.62,-0.38,-47,31,-859
46.710,4.00,4.75,-0.62,0,0,-844
46.712,3.75,5.62,-1.12,-31,-47,-750
46.714,3.38,7.00,-0.62,-16,-47,-625
46.716,1.38,6.25,-1.00,31,-16,-469
46.718,0.50,4.88,-1.00,78,0,-328
46.720,0.50,3.88,-0.62,156,-16,-250
46.722,1.12,2.62,0.00,250,-47,-94
46.724,1.25,2.12,0.75,281,0,-31
46.726,1.62,1.50,1.25,297,47,-16
46.728,1.88,0.88,1.25,281,47,0
46.730,1.88,0.12,0.88,266,16,0
46.732,1.88,-0.38,0.62,234,-16,16
46.734,1.62,-0.75,0.88,234,-31,31
46.736,1.62,-0.88,1.25,234,-16,47
46.738,1.62,-1.00,1.50,219,0,94
46.740,1.62,-1.00,1.88,188,0,125
46.742,1.62,-1.00,1.75,156,0,141
46.744,1.50,-0.88,1.75,125,16,188
46.746,1.25,-1.00,1.25,78,31,234
46.748,1.00,-1.00,1.12,47,31,297
46.750,0.88,-0.88,1.12,31,31,359
46.752,0.75,-0.88,1.12,78,31,484
46.754,0.88,-1.12,1.38,78,31,531
46.756,0.38,-2.00,1.62,78,31,578
46.758,-0.50,-3.62,1.38,0,63,609
46.760,-1.50,-5.00,0.88,-47,78,563
46.762,-2.00,-5.00,0.88,-47,47,453
46.764,-2.25,-2.75,1.25,0,-16,344
46.766,-0.50,-1.62,0.88,-156,47,47
46.768,0.12,-0.88,0.62,-219,125,-31
46.770,0.62,0.00,0.62,-188,156,-63
46.772,0.75,0.00,0.12,-141,141,-78
46.774,1.25,0.12,-0.25,-125,109,-94
46.776,1.62,0.38,0.38,-94,78,-125
46.778,1.62,0.25,0.75,-63,47,-156
46.780,1.50,0.38,0.88,-63,47,-250
46.782,1.38,0.50,0.75,-78,47,-297
46.784,1.25,0.88,0.50,-78,47,-359
46.786,1.38,1.25,0.50,-94,47,-391
46.788,1.88,1.88,-0.12,-94,31,-406
46.790,2.12,2.62,0.38,-94,31,-391
46.792,2.25,3.38,0.38,-16,31,-328
46.794,2.38,3.50,0.25,-16,31,-234
46.796,2.12,3.38,0.00,-16,31,-31
46.798,1.62,1.62,-0.50,16,16,78
46.800,1.50,1.00,-0.12,47,16,141
46.802,1.50,0.38,0.38,94,16,156
46.804,1.25,0.12,0.75,94,16,141
46.806,1.00,0.00,0.75,78,0,141
46.808,0.75,-0.12,0.75,78,-16,125
46.810,0.50,-0.38,0.75,63,-16,125
46.812,0.38,-0.62,0.75,63,-16,125
46.814,0.25,-1.00,0.88,78,-16,125
46.816,0.25,-1.00,1.12,78,0,141
46.818,0.25,-1.00,1.50,63,0,141
46.820,0.50,-1.00,1.62,63,0,172
46.822,0.50,-1.00,1.38,16,16,188
46.824,0.62,-1.25,0.88,-31,16,266
46.826,0.75,-1.12,0.88,-16,16,313
46.828,1.00,-1.00,1.00,16,16,375
46.830,1.25,-1.25,1.12,47,0,422
46.832,1.12,-1.62,1.00,31,0,469
46.834,0.50,-2.50,1.00,-16,0,500
46.836,-0.38,-3.62,0.88,-31,0,516
46.838,-1.00,-4.50,0.62,-31,-31,375
46.840,-1.62,-4.00,0.88,0,-47,250
46.842,-1.75,-2.38,1.25,0,-78,125
46.844,-1.00,-1.38,1.00,-94,-47,16
46.846,-0.38,-0.62,0.62,-141,0,-63
46.848,0.12,-0.25,0.50,-125,31,-94
46.850,0.50,-0.12,0.38,-78,31,-78
46.852,0.75,-0.25,0.12,-63,16,-78
46.854,0.75,-0.38,0.25,-31,-16,-78
46.856,0.75,-0.25,0.50,-31,-16,-63
46.858,0.75,-0.12,0.50,-31,-16,-63
46.860,0.88,0.00,0.25,-31,-16,-78
46.862,1.00,0.12,0.12,-31,-16,-78
46.864,1.12,0.12,0.00,-31,-16,-78
46.866,1.12,0.12,0.00,-16,-16,-94
46.868,1.38,0.25,0.12,16,-31,-109
46.870,1.38,0.12,0.25,31,-47,-125
46.872,1.50,0.12,0.25,31,-47,-125
46.874,1.50,0.25,0.25,31,-47,-125
46.876,1.50,0.25,0.25,47,-63,-109
46.878,1.25,0.25,0.38,47,-63,-109
46.880,1.12,0.25,0.38,47,-63,-94
46.882,0.88,0.00,0.38,63,-63,-63
46.884,0.75,-0.12,0.38,63,-63,-47
46.886,0.75,-0.25,0.50,78,-63,-47
46.888,0.75,-0.38,0.50,78,-63,-47
46.890,0.75,-0.50,0.50,78,-63,-47
46.892,0.75,-0.62,0.50,63,-63,-47
46.894,0.75,-0.62,0.50,63,-63,-47
46.896,0.62,-0.75,0.50,63,-63,-47
46.898,0.62,-0.88,0.62,63,-63,-47
46.900,0.62,-0.88,0.62,63,-63,-47
46.902,0.50,-1.00,0.62,47,-47,-47
46.904,0.50,-1.00,0.75,47,-47,-47
46.906,0.50,-1.00,0.75,47,-47,-47
46.908,0.62,-1.00,0.62,31,-47,-47
46.910,0.62,-0.88,0.62,16,-31,-47
46.912,0.62,-0.88,0.62,0,-31,-47
46.914,0.62,-0.75,0.62,0,-31,-47
46.916,0.75,-0.75,0.62,0,-16,-47
46.918,0.75,-0.62,0.62,-16,-16,-47
46.920,0.88,-0.62,0.50,-16,-16,-47
46.922,1.00,-0.50,0.50,-31,-16,-47
46.924,1.12,-0.38,0.50,-31,0,-31
46.926,1.25,-0.38,0.38,-31,0,-31
46.928,1.25,-0.25,0.38,-47,0,-31
46.930,1.38,-0.12,0.38,-47,0,-16
46.932,1.50,0.00,0.38,-47,0,-16
46.934,1.50,0.00,0.25,-47,0,-16
47.570,1.00,-0.38,-0.12,0,-16,0
47.572,1.00,-0.38,-0.12,0,-16,0
47.574,1.00,-0.38,-0.12,0,-16,0
47.576,1.25,-0.88,-0.38,0,-16,0
47.578,1.38,-1.25,-0.38,0,-16,0
47.580,1.12,-2.25,-0.62,0,-16,0
47.582,1.00,-3.25,-1.00,0,-31,0
47.584,1.12,-4.50,-1.75,0,-31,16
47.586,1.38,-6.00,-2.88,-47,-31,16
47.588,0.88,-7.12,-2.88,-125,-31,47
47.590,-0.38,-7.25,-3.88,-203,-16,63
47.592,-1.50,-5.12,-3.38,-281,-31,94
47.594,-1.75,-2.50,-2.38,-391,-94,78
47.596,-2.00,-0.62,-1.88,-438,-78,63
47.598,-1.75,0.62,-1.38,-438,-31,47
47.600,-1.75,1.62,-0.38,-391,63,78
47.602,-1.75,2.62,0.12,-281,109,109
47.604,-1.62,3.38,0.38,-219,141,172
47.606,-1.62,4.00,0.38,-203,156,281
47.608,-1.38,5.12,0.12,-156,234,594
47.610,0.88,5.12,1.75,-109,250,688
47.612,3.75,5.50,1.75,-63,266,672
47.614,7.25,4.38,0.12,-63,297,531
47.616,8.75,2.25,-0.25,-63,344,391
47.618,10.12,-0.12,-1.62,-16,359,297
47.620,10.00,-1.62,-2.25,16,281,266
47.622,7.25,-1.12,-1.62,109,109,266
47.624,5.25,1.38,-1.25,63,16,172
47.626,3.62,2.50,-1.50,-31,-78,109
47.628,2.00,3.25,-1.62,-47,-125,78
47.630,0.38,3.62,-1.12,16,-109,63
47.632,-0.62,3.38,-0.88,125,-63,47
47.634,-1.25,2.75,-0.62,219,-31,31
47.636,-1.62,2.00,-0.38,266,0,0
47.638,-1.62,1.50,-0.50,250,31,0
47.640,-1.12,0.62,-0.75,250,16,47
47.642,0.38,0.12,-0.62,266,16,109
47.644,0.88,-0.25,-0.12,281,16,156
47.646,1.12,-0.88,0.50,281,31,156
47.648,1.38,-1.62,0.75,297,-16,141
47.650,1.38,-2.00,1.25,281,-78,125
47.652,1.50,-1.88,1.88,250,-109,141
47.654,2.00,-2.25,1.50,188,-63,188
47.656,2.38,-2.50,1.88,109,-31,266
47.658,2.88,-3.50,1.50,109,-16,406
47.660,1.38,-7.25,2.00,156,-47,563
47.662,-2.25,-11.50,1.38,141,-78,750
47.664,-5.12,-13.00,0.50,94,-63,766
47.666,-5.88,-7.38,3.00,156,-266,500
47.668,-6.00,-4.50,2.62,-141,-203,313
47.670,-5.00,-2.50,1.75,-359,-63,156
47.672,-4.62,0.12,2.25,-313,78,109
47.674,-4.38,1.50,2.38,-141,156,156
47.676,-5.25,2.38,2.38,-31,188,203
47.678,-5.62,1.75,1.12,0,203,250
47.680,-2.88,0.88,0.75,-94,172,94
47.682,-1.00,-0.12,0.50,-94,219,-47
47.684,0.00,-0.62,0.62,-94,234,-141
47.686,0.62,-0.38,0.00,-94,234,-219
47.688,1.12,-0.38,-0.38,-94,203,-266
47.690,1.62,-0.62,-0.88,-94,172,-281
47.692,3.00,-1.12,0.50,-63,188,-313
47.694,5.00,-1.38,0.88,-16,203,-344
47.696,6.12,-1.00,0.12,-47,63,-500
47.698,6.50,0.00,-1.38,-78,47,-641
47.700,5.50,2.38,-0.75,-78,47,-750
47.702,5.38,3.25,-1.38,-47,0,-750
47.704,5.12,4.12,-1.00,-47,-47,-672
47.706,3.88,4.62,0.12,0,-47,-563
47.708,2.12,3.75,0.25,78,-31,-438
47.710,1.38,3.00,0.50,188,-78,-281
47.712,1.00,2.25,0.50,188,-109,-188
47.714,1.12,1.38,0.62,188,-94,-94
47.716,1.50,0.88,1.00,188,-63,-16
47.718,1.88,0.38,1.12,203,-31,31
47.720,1.88,0.00,0.75,203,-31,31
47.722,1.38,-0.25,0.38,188,-63,31
47.724,0.88,-0.25,0.50,156,-109,31
47.726,0.50,-0.38,1.00,188,-109,31
47.728,0.12,-0.50,1.38,203,-94,47
47.730,0.00,-0.75,1.62,203,-78,47
47.732,-0.12,-0.75,2.00,188,-63,63
47.734,-0.12,-0.75,2.00,172,-47,78
47.736,0.12,-0.62,1.88,125,-16,94
47.738,0.12,-1.00,1.12,16,31,172
47.740,0.00,-1.25,0.75,0,47,234
47.742,0.25,-1.12,1.12,47,31,281
47.744,0.25,-0.88,1.38,94,0,344
47.746,0.50,-1.62,1.62,94,-16,391
47.748,0.00,-3.25,1.62,78,-16,438
47.750,-1.25,-5.25,1.38,16,31,469
47.752,-2.12,-6.38,1.00,-31,47,453
47.754,-2.12,-5.00,1.25,31,-47,219
47.756,-0.62,-2.88,1.38,-47,-31,47
47.758,0.25,-1.75,0.88,-203,63,-78
47.760,0.38,-0.62,0.62,-250,141,-125
47.762,0.62,0.00,0.75,-203,141,-141
47.764,0.62,0.12,0.38,-141,78,-141
47.766,0.75,0.38,0.38,-125,31,-156
47.768,0.62,0.50,0.75,-63,0,-219
47.770,0.50,0.50,1.12,-63,31,-250
47.772,0.75,0.75,1.12,-63,47,-266
47.774,1.00,0.75,0.50,-94,47,-297
47.776,1.38,0.88,0.25,-94,31,-313
47.778,1.62,1.12,0.25,-94,31,-328
47.780,2.38,1.25,-0.12,-78,31,-344
47.782,2.75,1.75,0.25,-31,16,-344
47.784,3.38,2.25,0.50,31,-16,-281
47.786,3.88,2.38,0.38,16,-16,-203
47.788,3.62,1.88,0.25,0,0,-109
47.790,2.25,0.50,0.00,16,-16,0
47.792,1.88,0.00,0.12,31,-31,94
47.794,1.38,-0.38,0.50,63,-63,109
47.796,1.12,-0.50,0.88,63,-63,109
47.798,0.88,-0.38,1.00,47,-63,109
47.800,0.75,-0.38,0.88,31,-47,109
47.802,0.50,-0.50,0.62,31,-47,109
47.804,0.38,-0.62,0.50,31,-47,109
47.806,0.25,-0.88,0.62,31,-47,109
47.808,0.12,-1.00,0.75,47,-47,109
47.810,0.12,-1.12,0.88,47,-47,109
47.812,0.00,-1.12,1.00,31,-47,109
47.814,0.00,-1.12,1.00,16,-31,125
47.816,0.00,-0.88,0.88,0,-31,141
47.818,0.00,-1.00,0.62,-16,-16,172
47.820,-0.12,-1.00,0.62,-31,-16,203
47.822,0.00,-0.88,0.62,-31,-16,234
47.824,0.12,-0.88,0.75,-16,-16,250
47.826,0.12,-1.00,0.88,-16,-16,313
47.828,0.12,-1.12,0.75,-31,0,328
47.830,0.12,-1.38,0.75,-31,0,344
47.832,0.00,-1.75,0.75,-47,0,344
47.834,-0.38,-2.38,0.62,-47,16,344
47.836,-1.00,-2.88,0.50,-63,16,328
47.838,-1.38,-2.75,0.62,-63,0,266
47.840,-1.25,-1.75,0.75,-47,-16,63
47.842,0.00,-0.88,0.62,-78,0,-31
47.844,0.50,-0.38,0.50,-109,31,-78
47.846,0.75,-0.12,0.38,-109,63,-78
47.848,1.12,0.00,0.12,-78,31,-78
47.850,1.38,-0.12,0.00,-63,0,-78
47.852,1.38,-0.12,0.12,-47,-16,-78
47.854,1.38,-0.12,0.25,-31,-16,-78
47.856,1.38,-0.12,0.12,-16,-16,-78
47.858,1.38,-0.12,0.12,-16,-31,-78
47.860,1.38,0.00,0.00,-16,-31,-78
47.862,1.38,0.00,0.00,-16,-31,-78
47.864,1.38,0.00,0.12,0,-47,-78
47.866,1.38,0.00,0.12,0,-47,-63
47.868,1.25,0.00,0.25,16,-47,-63
47.870,1.25,0.00,0.25,16,-63,-47
47.872,1.12,-0.12,0.25,16,-63,-47
47.874,1.00,-0.25,0.25,31,-63,-31
47.876,1.00,-0.38,0.25,31,-63,-31
47.878,0.88,-0.50,0.38,31,-63,-31
47.880,0.75,-0.62,0.38,31,-78,-31
47.882,0.75,-0.75,0.38,31,-78,-31
47.884,0.75,-0.88,0.38,31,-63,-31
47.886,0.62,-0.88,0.50,31,-63,-31
47.888,0.62,-1.00,0.50,31,-63,-31
47.890,0.62,-1.12,0.50,31,-63,-31
47.892,0.50,-1.25,0.50,31,-63,-31
47.894,0.50,-1.25,0.50,16,-63,-47
47.896,0.50,-1.25,0.50,16,-63,-47
47.898,0.50,-1.12,0.50,0,-47,-47
47.900,0.50,-1.12,0.50,0,-47,-47
47.902,0.62,-1.00,0.38,-16,-47,-47
47.904,0.62,-0.88,0.38,-16,-31,-47
47.906,0.75,-0.88,0.38,-31,-31,-47
47.908,0.88,-0.75,0.25,-31,-31,-47
47.910,0.88,-0.62,0.25,-31,-31,-47
47.912,1.00,-0.62,0.25,-47,-16,-31
47.914,1.12,-0.50,0.12,-47,-16,-31
47.916,1.12,-0.50,0.12,-47,-16,-31
47.918,1.25,-0.50,0.12,-47,-16,-31
47.920,1.38,-0.38,0.00,-47,-16,-31
47.922,1.50,-0.25,0.00,-47,-16,-16
47.924,1.62,-0.12,-0.12,-47,-16,-16
47.926,1.75,0.00,-0.25,-47,-16,-16
47.928,1.75,0.12,-0.38,-47,-31,0
48.654,0.62,-0.75,0.00,0,16,16
48.656,0.62,-0.75,0.00,0,16,16
48.658,0.50,-1.12,-0.12,0,16,0
48.660,0.75,-1.75,-0.25,16,16,0
48.662,0.38,-2.38,-0.25,0,16,0
48.664,0.38,-3.12,-0.75,0,16,0
48.666,0.25,-4.12,-1.75,0,16,16
48.668,0.50,-5.00,-2.88,-63,47,16
48.670,-0.25,-5.75,-4.50,-125,31,47
48.672,-1.88,-5.50,-5.88,-203,31,94
48.674,-3.25,-5.00,-7.75,-297,63,141
48.676,-3.12,-2.00,-6.25,-344,63,141
48.678,-2.25,0.25,-4.25,-328,47,94
48.680,-1.38,1.12,-1.88,-281,31,31
48.682,-1.50,1.88,0.50,-78,94,31
48.684,-2.00,3.00,1.88,0,125,78
48.686,-3.25,4.62,2.00,31,141,156
48.688,-3.25,5.75,4.00,31,203,250
48.690,-1.50,5.50,4.38,94,266,328
48.692,0.38,2.75,3.62,63,328,375
48.694,1.25,2.00,4.38,63,406,438
48.696,5.25,-0.12,1.50,16,328,438
48.698,8.62,-2.12,2.75,47,266,438
48.700,13.00,-6.62,-1.75,16,266,438
48.702,13.00,-8.25,-0.38,16,234,391
48.704,8.50,-4.75,0.50,156,297,313
48.706,5.88,-1.25,-1.75,125,203,172
48.708,3.88,0.75,-2.50,-94,-31,78
48.710,2.38,1.50,-2.00,-250,-156,47
48.712,0.50,2.12,-0.12,-16,-78,0
48.714,0.25,2.12,0.38,219,-47,-109
48.716,-0.75,3.88,2.62,391,16,-234
48.718,-2.00,3.75,2.25,391,94,-328
48.720,-2.50,4.75,1.12,188,78,-375
48.722,-3.00,3.62,-1.00,47,31,-359
48.724,-1.00,0.75,-1.75,78,16,-203
48.726,-0.12,0.00,0.12,250,47,141
48.728,0.75,-0.75,2.38,281,78,203
48.730,2.00,-1.12,1.25,203,16,219
48.732,3.25,-1.88,2.25,125,-94,266
48.734,4.25,-3.75,1.62,125,-78,344
48.736,5.00,-5.62,0.88,31,-94,406
48.738,4.62,-5.50,1.88,31,-63,469
48.740,2.12,-4.12,2.12,109,-172,578
48.742,0.12,-4.38,1.12,16,-203,609
48.744,-1.50,-4.50,0.88,-47,-172,594
48.746,-2.75,-3.88,2.00,31,-63,563
48.748,-5.12,-2.88,3.50,109,16,578
48.750,-6.50,-1.75,3.12,94,-16,656
48.752,-7.38,-1.12,1.88,-16,-125,688
48.754,-7.88,0.75,0.00,-141,-109,516
48.756,-6.88,1.88,0.50,-63,0,344
48.758,-4.50,1.75,0.88,-47,141,125
48.760,-2.50,0.38,1.38,-16,234,-63
48.762,-0.88,-0.50,1.50,31,234,-172
48.764,-0.12,-1.12,0.75,31,172,-219
48.766,0.25,-1.88,-0.62,-31,94,-250
48.768,0.38,-2.12,-0.75,-78,63,-297
48.770,0.75,-2.25,-0.75,-31,78,-438
48.772,1.38,-2.00,0.25,0,94,-500
48.774,1.88,-2.00,1.00,16,109,-563
48.776,2.62,-2.00,1.38,-31,16,-563
48.778,3.00,-1.62,0.88,-47,-78,-547
48.780,2.62,-0.62,0.25,-47,-78,-563
48.782,1.88,0.25,0.12,-63,-47,-594
48.784,2.00,0.62,-0.88,-94,-31,-656
48.786,3.00,1.38,-0.38,-78,-47,-656
48.788,3.00,2.25,0.25,16,-63,-609
48.790,3.25,3.12,0.50,78,-78,-563
48.792,3.12,3.38,0.50,78,-63,-500
48.794,2.38,2.88,0.00,63,-78,-406
48.796,1.38,2.00,-0.38,47,-109,-313
48.798,1.50,0.50,-0.38,109,-141,-78
48.800,1.38,-0.12,0.50,156,-109,-31
48.802,1.38,-0.50,0.75,156,-94,-16
48.804,1.25,-0.88,0.38,125,-94,-16
48.806,0.88,-0.75,0.25,94,-125,-16
48.808,0.38,-0.50,0.38,94,-141,-16
48.810,0.12,-0.38,0.62,94,-125,-16
48.812,-0.12,-0.38,0.75,94,-109,-16
48.814,-0.12,-0.50,1.00,109,-109,-16
48.816,-0.25,-0.75,1.00,109,-94,0
48.818,-0.12,-1.00,1.12,109,-63,0
48.820,0.00,-1.12,0.88,94,-47,0
48.822,0.12,-1.12,1.00,78,-31,0
48.824,0.12,-1.25,0.88,78,-16,16
48.826,0.25,-1.38,0.88,63,-16,16
48.828,0.50,-1.50,1.00,47,0,47
48.830,0.62,-1.62,1.00,31,0,63
48.832,0.62,-1.75,1.00,16,16,78
48.834,0.62,-1.75,0.75,0,16,94
48.836,0.62,-1.75,0.62,-16,16,109
48.838,0.38,-1.50,0.62,-31,31,125
48.840,0.12,-1.12,0.62,-31,31,141
48.842,-0.12,-0.88,0.50,-47,31,109
48.844,-0.25,-0.62,0.50,-47,31,94
48.846,-0.25,-0.12,0.62,-47,47,47
48.848,0.38,0.38,0.50,-47,47,16
48.850,0.62,0.62,0.50,-63,63,-16
48.852,0.75,0.62,0.38,-63,78,-16
48.854,1.00,0.50,0.25,-47,78,-16
48.856,1.25,0.38,0.38,-16,63,-31
48.858,1.50,0.25,0.50,0,63,-16
48.860,1.75,0.12,0.50,0,63,-16
48.862,2.00,0.00,0.50,0,63,0
48.864,2.12,-0.12,0.38,16,63,0
48.866,2.25,-0.25,0.38,16,47,16
48.868,2.25,-0.25,0.38,16,47,16
48.870,2.12,-0.25,0.38,16,16,47
48.872,1.88,-0.25,0.38,16,16,63
48.874,1.50,-0.25,0.38,31,0,63
48.876,1.25,-0.25,0.50,31,0,78
48.878,1.00,-0.25,0.62,31,-16,78
48.880,0.75,-0.25,0.62,31,-16,78
48.882,0.50,-0.38,0.62,31,-16,78
48.884,0.38,-0.50,0.62,31,-16,78
48.886,0.25,-0.62,0.75,47,-16,78
48.888,0.12,-0.88,0.75,47,-16,78
48.890,0.00,-1.00,0.88,47,-16,78
48.892,0.00,-1.12,0.88,47,-16,78
49.702,1.12,-0.50,0.00,-16,0,31
49.704,1.12,-0.50,0.00,-16,0,31
49.706,1.00,-0.50,0.00,-16,0,31
49.708,1.12,-0.88,-0.12,-16,-16,31
49.710,1.12,-1.38,-0.25,-16,-16,31
49.712,0.38,-2.62,-0.62,0,-16,31
49.714,0.00,-3.25,-1.12,0,-31,31
49.716,-0.12,-4.50,-2.38,-16,-16,47
49.718,-0.75,-5.62,-4.75,-78,0,94
49.720,-1.25,-6.00,-4.38,-188,47,203
49.722,-3.75,-7.38,-5.50,-297,125,297
49.724,-5.25,-5.75,-5.50,-313,141,359
49.726,-4.25,-1.88,-3.38,-297,63,375
49.728,-3.12,0.00,-2.62,-344,47,281
49.730,-2.50,1.62,-1.50,-359,125,219
49.732,-2.38,3.00,-0.62,-281,203,219
49.734,-2.75,5.12,-0.88,-188,234,266
49.736,-2.25,6.75,0.75,-63,250,344
49.738,-0.88,7.25,1.25,78,266,438
49.740,1.38,5.25,0.62,78,266,531
49.742,2.12,3.62,1.50,141,375,703
49.744,5.00,2.25,2.88,250,359,703
49.746,9.00,-0.12,0.88,219,234,578
49.748,11.12,-2.50,0.50,172,234,469
49.750,10.88,-6.50,-0.62,203,266,453
49.752,8.75,-8.62,-1.38,172,234,453
49.754,6.12,-7.62,-1.38,219,125,438
49.756,4.88,-2.88,-1.12,156,-125,156
49.758,4.38,-0.38,-1.50,-63,-156,47
49.760,3.62,1.00,-1.25,-156,-156,0
49.762,2.62,2.38,-0.38,-78,-141,-47
49.764,2.12,3.00,0.25,172,-125,-94
49.766,1.62,3.25,0.62,359,-141,-219
49.768,1.12,3.12,1.00,406,-109,-344
49.770,1.50,3.50,-0.88,328,-109,-391
49.772,-0.12,2.75,-0.38,219,-203,-203
49.774,-0.38,0.75,-0.38,234,-219,-16
49.776,-0.38,-0.38,1.00,297,-234,125
49.778,-0.12,-1.12,2.00,328,-219,203
49.780,0.50,-1.12,2.25,281,-219,234
49.782,0.62,-1.62,1.88,203,-219,250
49.784,1.25,-3.00,2.50,156,-141,281
49.786,1.38,-4.88,2.75,109,-109,453
49.788,-0.62,-8.62,1.88,125,-219,625
49.790,-5.62,-10.88,1.62,31,-250,766
49.792,-8.25,-9.88,0.62,47,-250,750
49.794,-7.00,-5.12,2.88,47,-297,641
49.796,-5.75,-3.00,3.50,-63,-250,516
49.798,-5.88,-1.12,3.25,-250,-78,422
49.800,-5.62,1.12,3.88,-172,156,375
49.802,-4.50,1.75,2.50,-94,141,359
49.804,-4.12,1.50,1.00,-109,141,313
49.806,-3.00,1.25,0.25,-156,172,203
49.808,-1.75,0.75,0.38,-156,219,63
49.810,-0.88,0.38,0.75,-125,250,-78
49.812,0.00,0.12,1.00,-94,234,-141
49.814,0.62,0.00,0.75,-78,172,-188
49.816,0.88,0.00,0.62,-94,172,-172
49.818,1.00,0.00,0.38,-109,172,-172
49.820,1.12,-0.12,-0.25,-94,172,-172
49.822,1.00,0.00,-0.25,-63,156,-156
49.824,1.25,-0.25,-0.38,-16,141,-156
49.826,2.00,-0.38,-0.25,16,125,-156
49.828,2.88,-1.12,0.12,47,125,-172
49.830,3.88,-1.88,-0.12,-63,125,-281
49.832,5.75,-2.00,0.38,-63,47,-344
49.834,7.88,-1.12,-0.50,-16,-78,-406
49.836,8.50,-0.25,-0.38,-16,-78,-438
49.838,7.62,0.88,-0.25,-16,-31,-406
49.840,4.38,1.12,-0.75,-31,-47,-266
49.842,3.00,0.25,-1.00,-31,-109,-94
49.844,2.00,-0.25,-0.25,63,-266,78
49.846,1.25,-0.38,0.75,109,-250,94
49.848,0.62,-0.38,1.25,109,-219,94
49.850,0.25,-0.12,1.12,94,-188,94
49.852,-0.12,0.12,0.62,63,-172,78
49.854,-0.50,0.38,0.12,47,-156,63
49.856,-0.75,0.38,0.12,47,-141,63
49.858,-0.75,0.25,0.38,78,-141,78
49.860,-0.75,0.12,0.88,109,-125,78
49.862,-0.62,0.00,1.25,125,-94,94
49.864,-0.62,0.00,1.50,125,-63,109
49.866,-0.88,-0.25,1.25,94,-16,141
49.868,-1.25,-0.38,1.12,63,31,172
49.870,-1.00,-0.50,0.88,47,31,203
49.872,-0.75,-0.50,0.88,63,-63,250
49.874,-1.38,-1.75,0.75,47,-78,266
49.876,-2.62,-2.88,0.88,31,-16,281
49.878,-4.75,-4.25,1.00,16,16,297
49.880,-5.75,-4.50,0.88,31,0,281
49.882,-4.00,-2.50,1.00,63,-47,203
49.884,-2.12,-2.00,1.00,31,-31,94
49.886,-1.00,-1.25,0.88,-63,109,-47
49.888,-0.25,-0.62,0.75,-63,266,-125
49.890,0.75,-0.38,0.38,-47,203,-125
49.892,0.88,-0.38,0.00,-47,141,-109
49.894,1.00,-0.25,0.00,-31,109,-109
49.896,1.00,-0.25,0.38,-16,78,-109
49.898,1.00,-0.12,0.62,0,78,-109
49.900,1.00,-0.12,0.50,0,94,-125
49.902,1.00,-0.12,0.38,0,94,-141
49.904,1.12,-0.12,0.38,0,78,-156
49.906,1.12,-0.25,0.25,0,63,-172
49.908,1.38,-0.12,0.38,16,47,-203
49.910,1.62,-0.12,0.50,31,31,-250
49.912,2.00,-0.38,0.50,31,47,-281
49.914,2.12,-0.50,0.50,31,47,-297
49.916,2.38,-0.62,0.62,47,31,-297
49.918,2.75,-0.50,0.62,47,0,-281
49.920,3.00,-0.25,0.75,63,-47,-234
49.922,3.25,0.00,0.75,78,-63,-172
49.924,2.88,0.00,0.62,63,-63,-94
49.926,1.25,-0.75,0.50,47,-47,-16
49.928,0.88,-1.12,0.62,63,-47,63
49.930,0.50,-1.25,0.75,78,-78,78
49.932,0.25,-1.25,1.12,63,-78,78
49.934,0.12,-1.12,1.12,47,-63,78
49.936,0.00,-1.00,1.00,31,-47,78
49.938,-0.12,-1.00,0.88,31,-47,94
49.940,-0.25,-0.88,0.88,16,-31,94
